Time,Device name,Chip Time(),Temperature(℃),Acceleration X(g),Acceleration Y(g),Acceleration Z(g),X acceleration amplitude(g),Y acceleration amplitude(g),Z acceleration amplitude(g),X velocity amplitude(mm/s),Y velocity amplitude(mm/s),Z velocity amplitude(mm/s),X displacement amplitude(um),Y displacement amplitude(um),Z displacement amplitude(um),X frequency vibration frequency(Hz),Y frequency vibration frequency(Hz),Z frequency vibration frequency(Hz),(g),(g),(g),(g),(g),(),(g),(),(g),(mm/s),(g),(mm),(g),(g),(g),(g),(g),(),(g),(),(g),(mm/s),(g),(mm),(g),(g),(g),(g),(g),(),(g),(),(g),(mm/s),(g),(mm),(),(),(),(),(),(),(),(),(),(),(),(),(),(),(),(),(),(),(),(),(),(),(),(),(),(),(),(),(),(),(),(),(),(),(),(),(),(),(),(),(),(),(),(),(),(),(),()
 15:13:47.652,e36fca7b-ac85-42ee-9e80-64b80ac1a132, 2000-00-00 00:00:11.725, 39.30, 0.7827, 0.6196, 0.0386, 0.3936, 0.3555, 0.1733, 0.13, 0.11, 0.05, 0, 0, 0, 1878.6, 1878.6, 19.8, 1.483, 3.019, 0.783, 0.011, 0.790, 0.139, 1.172, 0.498, -0.008, 0.090, 1.509, 0.000, 1.484, 3.068, 0.619, 0.009, 0.627, 0.153, 0.931, 0.535, 0.028, 0.079, 1.534, 0.000, 3.933, 3.625, 0.038, 0.002, 0.047, 1.224, 0.186, 5.068, 0.046, 3.585, 1.812, 0.028, 0.000, 0.000, 0.000, 0, 0, 5, 2, 0, 1, 0, 0, 3, 36, 44, 18, 22, 3, 7275, 0, 0, 4, 2, 0, 0, 0, 0, 2, 21, 32, 14, 9, 1, 5462, 1, 0, 14, 2, 1, 0, 0, 0, 0, 217, 257, 12, 13, 1, 1030,
 15:13:47.900,e36fca7b-ac85-42ee-9e80-64b80ac1a132, 2000-00-00 00:00:11.970, 39.30, 0.7827, 0.6196, 0.0386, 0.3896, 0.3442, 0.1816, 0.13, 0.11, 0.05, 0, 0, 0, 1902.3, 1902.3, 19.8, 1.531, 3.223, 0.783, 0.012, 0.790, 0.143, 1.210, 0.552, 0.013, 0.091, 1.611, 0.000, 1.493, 3.240, 0.619, 0.009, 0.627, 0.157, 0.937, 0.595, 0.064, 0.080, 1.620, 0.000, 4.113, 3.617, 0.038, 0.002, 0.047, 1.215, 0.195, 5.201, -0.009, 3.602, 1.808, 0.028, 0.000, 0.000, 0.000, 0, 1, 5, 1, 0, 0, 0, 0, 26, 33, 38, 9, 19, 3, 6337, 0, 0, 3, 1, 1, 0, 0, 1, 18, 18, 22, 8, 4, 2, 4814, 1, 1, 15, 3, 0, 0, 0, 0, 9, 257, 274, 32, 12, 1, 1088,
 15:13:48.142,e36fca7b-ac85-42ee-9e80-64b80ac1a132, 2000-00-00 00:00:12.210, 39.30, 0.7827, 0.6196, 0.0386, 0.3794, 0.3379, 0.1885, 0.13, 0.11, 0.05, 0, 0, 0, 1878.6, 1878.6, 19.8, 1.482, 3.225, 0.783, 0.013, 0.791, 0.148, 1.173, 0.512, 0.069, 0.096, 1.612, 0.000, 1.541, 3.175, 0.619, 0.010, 0.628, 0.161, 0.968, 0.592, 0.074, 0.083, 1.587, 0.000, 4.517, 3.555, 0.038, 0.002, 0.048, 1.233, 0.220, 5.483, -0.014, 3.724, 1.777, 0.029, 0.000, 0.000, 0.000, 0, 0, 5, 2, 0, 1, 0, 0, 8, 31, 43, 15, 26, 5, 6318, 0, 1, 3, 2, 0, 0, 0, 0, 20, 22, 24, 19, 7, 4, 4862, 1, 1, 15, 1, 1, 1, 0, 0, 3, 245, 265, 25, 8, 3, 1045,
 15:13:48.387,e36fca7b-ac85-42ee-9e80-64b80ac1a132, 2000-00-00 00:00:12.450, 39.25, 0.7827, 0.6196, 0.0386, 0.3818, 0.3311, 0.1865, 0.13, 0.11, 0.05, 0, 0, 0, 1874.6, 1874.6, 19.8, 1.507, 3.002, 0.783, 0.012, 0.790, 0.143, 1.192, 0.526, 0.017, 0.093, 1.501, 0.000, 1.464, 3.164, 0.619, 0.009, 0.627, 0.153, 0.919, 0.533, 0.100, 0.079, 1.582, 0.000, 3.968, 3.379, 0.038, 0.002, 0.049, 1.232, 0.196, 4.818, 0.007, 3.769, 1.689, 0.030, 0.000, 0.000, 0.000, 0, 0, 5, 1, 0, 1, 0, 0, 1, 27, 33, 5, 34, 6, 7463, 0, 0, 4, 1, 0, 0, 0, 0, 4, 23, 24, 10, 7, 2, 5406, 1, 1, 15, 2, 0, 0, 0, 0, 5, 251, 268, 6, 10, 1, 1136,
 15:13:48.629,e36fca7b-ac85-42ee-9e80-64b80ac1a132, 2000-00-00 00:00:12.695, 39.26, 0.7827, 0.6196, 0.0386, 0.3857, 0.3311, 0.1758, 0.13, 0.11, 0.05, 0, 0, 0, 1874.6, 1874.6, 19.8, 1.518, 3.340, 0.783, 0.011, 0.790, 0.137, 1.199, 0.533, -0.004, 0.089, 1.670, 0.000, 1.475, 3.332, 0.619, 0.008, 0.627, 0.148, 0.925, 0.555, 0.054, 0.076, 1.666, 0.000, 4.100, 3.540, 0.038, 0.002, 0.047, 1.241, 0.194, 5.168, 0.050, 3.629, 1.770, 0.029, 0.000, 0.000, 0.000, 0, 0, 5, 2, 1, 1, 0, 0, 1, 32, 40, 15, 32, 8, 5734, 0, 0, 3, 2, 0, 0, 0, 0, 1, 17, 23, 7, 4, 1, 4103, 1, 0, 14, 2, 1, 0, 0, 0, 2, 233, 265, 9, 8, 1, 1175,
 15:13:48.874,e36fca7b-ac85-42ee-9e80-64b80ac1a132, 2000-00-00 00:00:12.935, 39.28, 0.7827, 0.6196, 0.0386, 0.3936, 0.3516, 0.1826, 0.13, 0.11, 0.05, 0, 0, 0, 1874.6, 1874.6, 19.8, 1.470, 3.083, 0.783, 0.012, 0.791, 0.145, 1.163, 0.498, 0.013, 0.094, 1.541, 0.000, 1.532, 3.239, 0.619, 0.009, 0.628, 0.156, 0.962, 0.582, 0.045, 0.080, 1.619, 0.000, 4.209, 3.685, 0.038, 0.002, 0.047, 1.232, 0.199, 5.472, 0.165, 3.616, 1.842, 0.029, 0.000, 0.000, 0.000, 0, 0, 5, 1, 0, 1, 0, 0, 3, 35, 38, 11, 47, 7, 7044, 0, 0, 3, 2, 1, 0, 0, 0, 2, 16, 25, 10, 7, 4, 5240, 0, 1, 15, 3, 0, 0, 0, 0, 7, 262, 276, 24, 8, 1, 1125,
 15:13:49.118,e36fca7b-ac85-42ee-9e80-64b80ac1a132, 2000-00-00 00:00:13.175, 39.28, 0.7827, 0.6196, 0.0386, 0.3838, 0.3584, 0.1758, 0.13, 0.11, 0.05, 0, 0, 0, 1910.3, 1910.3, 19.8, 1.506, 3.153, 0.783, 0.013, 0.791, 0.148, 1.193, 0.526, -0.010, 0.095, 1.576, 0.000, 1.522, 3.440, 0.619, 0.010, 0.628, 0.161, 0.956, 0.656, 0.117, 0.081, 1.720, 0.000, 3.719, 3.268, 0.038, 0.002, 0.049, 1.217, 0.183, 4.475, 0.089, 3.768, 1.634, 0.030, 0.000, 0.000, 0.000, 0, 0, 5, 3, 0, 1, 0, 0, 6, 28, 48, 18, 39, 10, 6519, 0, 1, 3, 1, 0, 0, 0, 1, 5, 17, 17, 13, 5, 5, 4649, 1, 1, 14, 2, 1, 0, 0, 0, 2, 236, 258, 32, 5, 3, 1265,
 15:13:49.362,e36fca7b-ac85-42ee-9e80-64b80ac1a132, 2000-00-00 00:00:13.415, 39.28, 0.7827, 0.6196, 0.0386, 0.3735, 0.3584, 0.1758, 0.13, 0.11, 0.05, 0, 0, 0, 1874.6, 1874.6, 19.8, 1.470, 3.031, 0.783, 0.013, 0.791, 0.147, 1.163, 0.493, 0.018, 0.096, 1.515, 0.000, 1.524, 3.365, 0.619, 0.009, 0.628, 0.158, 0.958, 0.639, 0.097, 0.081, 1.682, 0.000, 3.690, 3.181, 0.038, 0.002, 0.050, 1.234, 0.184, 4.774, 0.007, 3.860, 1.590, 0.031, 0.000, 0.000, 0.000, 0, 0, 6, 2, 0, 1, 0, 0, 2, 43, 57, 15, 45, 5, 7637, 0, 0, 3, 1, 1, 0, 0, 0, 3, 17, 20, 11, 8, 4, 5780, 1, 1, 15, 2, 0, 0, 0, 0, 3, 245, 264, 8, 8, 1, 1247,
 15:13:49.607,e36fca7b-ac85-42ee-9e80-64b80ac1a132, 2000-00-00 00:00:13.660, 39.27, 0.7827, 0.6196, 0.0386, 0.3916, 0.3677, 0.1787, 0.13, 0.11, 0.05, 0, 0, 0, 1874.6, 1874.6, 19.8, 1.466, 2.926, 0.783, 0.014, 0.791, 0.151, 1.161, 0.512, 0.025, 0.098, 1.463, 0.000, 1.579, 3.106, 0.619, 0.010, 0.628, 0.162, 0.993, 0.629, 0.025, 0.083, 1.553, 0.000, 3.837, 3.167, 0.038, 0.002, 0.049, 1.226, 0.192, 4.657, -0.002, 3.820, 1.583, 0.030, 0.000, 0.000, 0.000, 0, 0, 5, 1, 0, 1, 0, 0, 1, 35, 46, 14, 42, 5, 8086, 0, 0, 2, 1, 1, 1, 0, 0, 3, 8, 14, 9, 9, 3, 5783, 1, 0, 14, 2, 1, 0, 0, 0, 1, 226, 262, 11, 10, 1, 1260,
 15:13:49.851,e36fca7b-ac85-42ee-9e80-64b80ac1a132, 2000-00-00 00:00:13.900, 39.27, 0.7827, 0.6196, 0.0386, 0.3906, 0.3633, 0.1797, 0.27, 0.22, 0.11, 0, 0, 0, 709.4, 1882.5, 19.8, 1.469, 2.908, 0.783, 0.014, 0.791, 0.154, 1.163, 0.513, 0.084, 0.266, 1.454, 0.000, 1.513, 3.086, 0.619, 0.010, 0.628, 0.165, 0.951, 0.609, 0.017, 0.085, 1.543, 0.000, 3.843, 3.263, 0.038, 0.002, 0.050, 1.236, 0.196, 4.867, 0.059, 3.927, 1.631, 0.031, 0.000, 0.000, 0.000, 0, 0, 6, 3, 1, 0, 0, 0, 7, 44, 53, 20, 22, 4, 7020, 0, 0, 3, 1, 1, 0, 0, 1, 6, 16, 20, 10, 7, 3, 5127, 1, 1, 15, 2, 0, 0, 0, 1, 4, 241, 270, 21, 6, 1, 1388,
 15:13:50.095,e36fca7b-ac85-42ee-9e80-64b80ac1a132, 2000-00-00 00:00:14.145, 39.28, 0.7827, 0.6196, 0.0386, 0.3940, 0.3594, 0.1875, 0.22, 0.18, 0.09, 0, 0, 0, 1874.6, 1874.6, 19.8, 1.496, 3.073, 0.783, 0.014, 0.791, 0.155, 1.185, 0.531, 0.040, 0.101, 1.536, 0.000, 1.584, 3.399, 0.619, 0.010, 0.628, 0.163, 0.996, 0.624, -0.045, 0.084, 1.699, 0.000, 3.776, 3.452, 0.038, 0.002, 0.051, 1.236, 0.193, 4.860, 0.103, 3.948, 1.726, 0.031, 0.000, 0.000, 0.000, 1, 0, 5, 2, 0, 1, 0, 0, 1, 31, 43, 8, 25, 7, 8319, 0, 0, 4, 2, 0, 1, 0, 0, 2, 21, 26, 8, 6, 4, 5873, 1, 0, 15, 2, 0, 1, 0, 0, 1, 236, 265, 35, 11, 5, 1333,
 15:13:50.337,e36fca7b-ac85-42ee-9e80-64b80ac1a132, 2000-00-00 00:00:14.385, 39.29, 0.7827, 0.6196, 0.0386, 0.3970, 0.3564, 0.1831, 0.28, 0.23, 0.11, 0, 0, 0, 709.4, 1874.6, 19.8, 1.553, 3.030, 0.783, 0.014, 0.791, 0.155, 1.229, 0.574, -0.034, 0.267, 1.515, 0.000, 1.555, 3.394, 0.619, 0.010, 0.628, 0.163, 0.977, 0.654, 0.055, 0.084, 1.697, 0.000, 3.786, 3.407, 0.038, 0.002, 0.051, 1.224, 0.194, 5.051, 0.175, 3.924, 1.703, 0.031, 0.000, 0.000, 0.000, 1, 0, 5, 2, 0, 0, 0, 0, 4, 32, 49, 12, 31, 3, 7334, 1, 1, 4, 2, 0, 0, 0, 0, 3, 22, 27, 13, 3, 2, 5087, 0, 1, 15, 2, 0, 0, 0, 0, 5, 255, 273, 11, 16, 2, 1417,
 15:13:50.579,e36fca7b-ac85-42ee-9e80-64b80ac1a132, 2000-00-00 00:00:14.625, 39.30, 0.7827, 0.6196, 0.0386, 0.3989, 0.3579, 0.1763, 0.23, 0.19, 0.09, 0, 0, 0, 1874.6, 1874.6, 19.8, 1.490, 3.047, 0.782, 0.013, 0.790, 0.148, 1.178, 0.507, -0.034, 0.096, 1.523, 0.000, 1.500, 3.377, 0.619, 0.009, 0.627, 0.157, 0.941, 0.639, 0.071, 0.081, 1.688, 0.000, 3.933, 3.230, 0.038, 0.002, 0.051, 1.228, 0.202, 4.938, 0.100, 3.935, 1.615, 0.031, 0.000, 0.000, 0.000, 0, 0, 5, 2, 0, 0, 0, 0, 28, 35, 45, 11, 20, 2, 6941, 2, 0, 4, 2, 0, 0, 0, 1, 3, 28, 34, 12, 3, 5, 4740, 2, 0, 14, 2, 0, 0, 0, 0, 0, 231, 272, 7, 16, 1, 1244,
 15:13:50.822,e36fca7b-ac85-42ee-9e80-64b80ac1a132, 2000-00-00 00:00:14.865, 39.31, 0.7827, 0.6196, 0.0386, 0.4087, 0.3687, 0.1816, 0.16, 0.13, 0.06, 0, 0, 0, 1874.6, 1874.6, 19.8, 1.467, 3.054, 0.782, 0.013, 0.791, 0.149, 1.160, 0.515, 0.041, 0.097, 1.527, 0.000, 1.523, 3.285, 0.620, 0.009, 0.628, 0.158, 0.957, 0.579, 0.054, 0.081, 1.642, 0.000, 4.472, 3.483, 0.038, 0.002, 0.052, 1.224, 0.235, 5.383, -0.079, 4.007, 1.741, 0.032, 0.000, 0.000, 0.000, 0, 0, 6, 2, 0, 0, 0, 0, 3, 55, 57, 9, 20, 8, 7263, 0, 0, 3, 1, 0, 0, 0, 1, 2, 13, 17, 11, 4, 4, 5337, 1, 1, 15, 3, 0, 1, 0, 0, 3, 248, 279, 17, 12, 3, 1306,
 15:13:51.065,e36fca7b-ac85-42ee-9e80-64b80ac1a132, 2000-00-00 00:00:15.105, 39.30, 0.7827, 0.6196, 0.0386, 0.3965, 0.3530, 0.1963, 0.14, 0.11, 0.06, 0, 0, 0, 1910.3, 1910.3, 19.8, 1.454, 3.077, 0.782, 0.014, 0.790, 0.151, 1.150, 0.539, 0.040, 0.096, 1.538, 0.000, 1.496, 3.235, 0.620, 0.010, 0.628, 0.161, 0.939, 0.605, 0.035, 0.081, 1.617, 0.000, 4.606, 3.526, 0.038, 0.002, 0.052, 1.229, 0.242, 5.644, -0.054, 4.023, 1.763, 0.032, 0.000, 0.000, 0.000, 1, 0, 5, 2, 0, 0, 0, 0, 1, 29, 46, 13, 7, 2, 7024, 0, 0, 3, 2, 0, 0, 0, 1, 4, 13, 21, 16, 7, 1, 5272, 1, 0, 15, 2, 0, 1, 0, 0, 3, 241, 268, 29, 18, 4, 1296,
 15:13:51.308,e36fca7b-ac85-42ee-9e80-64b80ac1a132, 2000-00-00 00:00:15.350, 39.29, 0.7827, 0.6196, 0.0386, 0.4097, 0.3428, 0.1997, 0.13, 0.11, 0.05, 0, 0, 0, 1874.6, 1874.6, 19.8, 1.505, 3.020, 0.782, 0.014, 0.792, 0.153, 1.193, 0.536, -0.041, 0.099, 1.510, 0.000, 1.541, 3.093, 0.620, 0.010, 0.628, 0.164, 0.968, 0.578, -0.041, 0.084, 1.546, 0.000, 4.296, 4.028, 0.038, 0.002, 0.049, 1.238, 0.213, 5.726, 0.281, 3.796, 2.014, 0.030, 0.000, 0.000, 0.000, 1, 1, 5, 1, 0, 1, 0, 0, 8, 39, 43, 4, 9, 7, 7707, 0, 0, 3, 2, 0, 0, 0, 0, 2, 15, 21, 11, 5, 3, 5500, 0, 1, 15, 2, 0, 0, 0, 1, 5, 251, 271, 15, 16, 1, 1191,
 15:13:51.552,e36fca7b-ac85-42ee-9e80-64b80ac1a132, 2000-00-00 00:00:15.590, 39.29, 0.7827, 0.6196, 0.0386, 0.4087, 0.3477, 0.1865, 0.13, 0.11, 0.05, 0, 0, 0, 1910.3, 1910.3, 19.8, 1.506, 3.269, 0.782, 0.013, 0.791, 0.146, 1.191, 0.560, 0.006, 0.093, 1.634, 0.000, 1.500, 3.316, 0.620, 0.009, 0.627, 0.157, 0.941, 0.625, 0.071, 0.079, 1.658, 0.000, 4.009, 3.558, 0.038, 0.002, 0.047, 1.216, 0.192, 5.240, 0.231, 3.642, 1.779, 0.029, 0.000, 0.000, 0.000, 0, 0, 6, 1, 0, 0, 0, 0, 2, 43, 47, 7, 3, 2, 7415, 1, 0, 3, 1, 0, 0, 0, 1, 2, 12, 18, 9, 3, 3, 5211, 1, 1, 14, 2, 0, 0, 0, 0, 2, 231, 259, 5, 28, 0, 1144,
 15:13:51.796,e36fca7b-ac85-42ee-9e80-64b80ac1a132, 2000-00-00 00:00:15.830, 39.31, 0.7827, 0.6196, 0.0386, 0.4189, 0.3604, 0.1724, 0.13, 0.11, 0.05, 0, 0, 0, 1874.6, 1866.7, 19.8, 1.520, 3.218, 0.782, 0.013, 0.791, 0.150, 1.204, 0.581, 0.038, 0.097, 1.609, 0.000, 1.553, 3.282, 0.620, 0.010, 0.628, 0.161, 0.976, 0.603, 0.069, 0.083, 1.641, 0.000, 4.019, 3.484, 0.038, 0.002, 0.046, 1.228, 0.188, 4.870, -0.017, 3.592, 1.742, 0.028, 0.000, 0.000, 0.000, 0, 0, 5, 1, 0, 0, 0, 0, 4, 33, 36, 10, 4, 6, 7229, 0, 0, 3, 1, 0, 0, 0, 0, 8, 17, 25, 10, 7, 1, 5319, 1, 0, 15, 2, 1, 0, 0, 0, 1, 235, 269, 12, 16, 2, 1070,
 15:13:52.039,e36fca7b-ac85-42ee-9e80-64b80ac1a132, 2000-00-00 00:00:16.070, 39.31, 0.7827, 0.6196, 0.0386, 0.4033, 0.3545, 0.1743, 0.13, 0.11, 0.05, 0, 0, 0, 1874.6, 1874.6, 19.8, 1.459, 2.917, 0.782, 0.014, 0.792, 0.152, 1.156, 0.544, 0.007, 0.099, 1.458, 0.000, 1.518, 3.156, 0.620, 0.010, 0.628, 0.164, 0.954, 0.600, 0.087, 0.085, 1.578, 0.000, 4.408, 3.295, 0.038, 0.002, 0.046, 1.216, 0.205, 5.247, 0.011, 3.567, 1.647, 0.028, 0.000, 0.000, 0.000, 0, 0, 5, 2, 0, 1, 0, 0, 1, 33, 42, 14, 5, 4, 7072, 1, 0, 3, 2, 0, 0, 0, 1, 1, 11, 19, 13, 4, 2, 5004, 1, 1, 15, 2, 0, 1, 0, 0, 4, 261, 277, 27, 17, 4, 1196,
 15:13:52.283,e36fca7b-ac85-42ee-9e80-64b80ac1a132, 2000-00-00 00:00:16.310, 39.33, 0.7827, 0.6196, 0.0386, 0.3892, 0.3564, 0.1758, 0.13, 0.11, 0.05, 0, 0, 0, 1890.5, 1890.5, 19.8, 1.438, 3.095, 0.782, 0.011, 0.790, 0.137, 1.136, 0.531, 0.050, 0.089, 1.547, 0.000, 1.503, 3.468, 0.620, 0.008, 0.627, 0.151, 0.943, 0.643, 0.085, 0.078, 1.734, 0.000, 4.115, 3.571, 0.038, 0.002, 0.047, 1.212, 0.193, 4.978, 0.162, 3.565, 1.785, 0.028, 0.000, 0.000, 0.000, 0, 0, 5, 2, 0, 0, 0, 0, 30, 31, 42, 9, 4, 5, 6634, 0, 0, 4, 1, 0, 1, 0, 0, 9, 25, 29, 8, 3, 3, 4987, 1, 1, 15, 2, 1, 0, 0, 0, 4, 251, 275, 22, 17, 1, 1188,
 15:13:52.526,e36fca7b-ac85-42ee-9e80-64b80ac1a132, 2000-00-00 00:00:16.555, 39.32, 0.7827, 0.6196, 0.0386, 0.3721, 0.3330, 0.1821, 0.13, 0.11, 0.05, 0, 0, 0, 1874.6, 1874.6, 19.8, 1.455, 2.989, 0.782, 0.012, 0.790, 0.140, 1.150, 0.480, -0.021, 0.090, 1.494, 0.000, 1.461, 3.272, 0.620, 0.008, 0.627, 0.151, 0.917, 0.576, 0.075, 0.077, 1.636, 0.000, 4.020, 3.801, 0.038, 0.001, 0.045, 1.235, 0.181, 5.271, 0.112, 3.459, 1.900, 0.027, 0.000, 0.000, 0.000, 0, 0, 5, 2, 1, 0, 0, 0, 2, 29, 38, 12, 9, 5, 6283, 0, 0, 3, 1, 0, 0, 0, 0, 4, 15, 23, 9, 3, 3, 4907, 1, 0, 14, 2, 0, 0, 0, 0, 4, 232, 260, 6, 18, 1, 996,
 15:13:52.770,e36fca7b-ac85-42ee-9e80-64b80ac1a132, 2000-00-00 00:00:16.795, 39.32, 0.7827, 0.6196, 0.0386, 0.3667, 0.3179, 0.1758, 0.12, 0.11, 0.05, 0, 0, 0, 1866.7, 1866.7, 19.8, 1.435, 2.961, 0.782, 0.011, 0.790, 0.138, 1.135, 0.471, -0.006, 0.090, 1.480, 0.000, 1.447, 3.105, 0.620, 0.008, 0.627, 0.148, 0.908, 0.527, 0.030, 0.076, 1.552, 0.000, 3.989, 3.485, 0.038, 0.001, 0.044, 1.219, 0.177, 5.226, 0.118, 3.390, 1.742, 0.027, 0.000, 0.000, 0.000, 0, 0, 6, 3, 0, 0, 0, 0, 34, 40, 55, 19, 10, 7, 6314, 0, 1, 1, 2, 0, 0, 0, 1, 35, 10, 15, 11, 6, 3, 4513, 1, 0, 14, 3, 1, 0, 0, 0, 1, 227, 261, 12, 19, 2, 958,
 15:13:53.012,e36fca7b-ac85-42ee-9e80-64b80ac1a132, 2000-00-00 00:00:17.040, 39.31, 0.7827, 0.6196, 0.0386, 0.3623, 0.3252, 0.1758, 0.12, 0.10, 0.05, 0, 0, 0, 1874.6, 1866.7, 19.8, 1.436, 3.053, 0.782, 0.011, 0.789, 0.134, 1.133, 0.458, 0.008, 0.087, 1.526, 0.000, 1.460, 3.216, 0.620, 0.008, 0.626, 0.145, 0.915, 0.550, 0.038, 0.075, 1.608, 0.000, 4.340, 3.712, 0.038, 0.001, 0.045, 1.244, 0.197, 5.341, -0.031, 3.485, 1.856, 0.027, 0.000, 0.000, 0.000, 0, 0, 6, 2, 1, 0, 0, 0, 5, 50, 59, 21, 16, 3, 6082, 0, 1, 1, 2, 0, 0, 0, 1, 35, 10, 15, 11, 6, 3, 4513, 1, 0, 14, 3, 1, 0, 0, 0, 1, 227, 261, 12, 19, 2, 958,
 15:13:53.256,e36fca7b-ac85-42ee-9e80-64b80ac1a132, 2000-00-00 00:00:17.280, 39.29, 0.7827, 0.6196, 0.0381, 0.3506, 0.3276, 0.1685, 0.12, 0.10, 0.05, 0, 0, 0, 1874.6, 1874.6, 19.8, 1.420, 2.990, 0.782, 0.011, 0.789, 0.137, 1.122, 0.448, 0.085, 0.089, 1.495, 0.000, 1.468, 3.186, 0.620, 0.008, 0.627, 0.148, 0.921, 0.563, 0.021, 0.076, 1.593, 0.000, 3.984, 3.419, 0.038, 0.001, 0.045, 1.233, 0.181, 4.791, -0.030, 3.486, 1.709, 0.027, 0.000, 0.000, 0.000, 0, 0, 6, 2, 1, 0, 0, 0, 5, 50, 59, 21, 16, 3, 6082, 1, 0, 3, 1, 1, 0, 0, 0, 9, 13, 20, 6, 7, 3, 4663, 1, 1, 15, 3, 0, 0, 0, 0, 6, 257, 274, 32, 9, 1, 1091,
 15:13:53.501,e36fca7b-ac85-42ee-9e80-64b80ac1a132, 2000-00-00 00:00:17.520, 39.29, 0.7827, 0.6196, 0.0381, 0.3760, 0.3364, 0.1763, 0.12, 0.10, 0.05, 0, 0, 0, 1874.6, 1874.6, 19.8, 1.454, 3.238, 0.782, 0.011, 0.789, 0.137, 1.148, 0.496, 0.059, 0.089, 1.619, 0.000, 1.442, 3.503, 0.620, 0.008, 0.626, 0.149, 0.904, 0.615, 0.123, 0.077, 1.751, 0.000, 4.133, 3.616, 0.038, 0.001, 0.045, 1.231, 0.188, 5.044, 0.041, 3.474, 1.808, 0.027, 0.000, 0.000, 0.000, 0, 0, 5, 2, 0, 0, 0, 0, 7, 33, 46, 13, 23, 4, 6207, 0, 0, 3, 2, 0, 0, 0, 0, 2, 16, 26, 11, 7, 4, 4375, 1, 0, 14, 2, 1, 0, 0, 0, 1, 234, 266, 30, 14, 0, 1026,
 15:13:53.744,e36fca7b-ac85-42ee-9e80-64b80ac1a132, 2000-00-00 00:00:17.765, 39.30, 0.7827, 0.6196, 0.0381, 0.3813, 0.3262, 0.1660, 0.12, 0.10, 0.05, 0, 0, 0, 1874.6, 1874.6, 19.8, 1.482, 3.209, 0.782, 0.011, 0.789, 0.138, 1.170, 0.503, -0.004, 0.090, 1.604, 0.000, 1.424, 3.351, 0.620, 0.008, 0.626, 0.148, 0.893, 0.583, 0.065, 0.076, 1.675, 0.000, 3.673, 3.257, 0.038, 0.002, 0.046, 1.220, 0.169, 4.724, 0.063, 3.526, 1.628, 0.028, 0.000, 0.000, 0.000, 0, 0, 5, 2, 0, 0, 0, 0, 0, 34, 46, 12, 28, 2, 5843, 0, 0, 3, 2, 0, 0, 0, 1, 3, 13, 24, 15, 6, 4, 4382, 1, 1, 15, 2, 0, 0, 0, 0, 4, 238, 263, 9, 12, 1, 979,
 15:13:53.987,e36fca7b-ac85-42ee-9e80-64b80ac1a132, 2000-00-00 00:00:18.005, 39.29, 0.7827, 0.6196, 0.0381, 0.3970, 0.3447, 0.1660, 0.13, 0.11, 0.05, 0, 0, 0, 1866.7, 1866.7, 19.8, 1.522, 3.447, 0.782, 0.012, 0.790, 0.144, 1.202, 0.589, 0.047, 0.094, 1.723, 0.000, 1.579, 3.409, 0.620, 0.009, 0.627, 0.155, 0.991, 0.640, 0.038, 0.080, 1.704, 0.000, 3.992, 3.379, 0.038, 0.001, 0.045, 1.213, 0.182, 5.038, 0.005, 3.449, 1.689, 0.027, 0.000, 0.000, 0.000, 1, 0, 5, 1, 0, 1, 0, 0, 11, 32, 38, 11, 26, 7, 6331, 0, 1, 3, 2, 0, 0, 0, 1, 4, 14, 21, 8, 13, 3, 4514, 1, 0, 14, 3, 0, 0, 0, 0, 1, 214, 248, 11, 12, 2, 994,
 15:13:54.232,e36fca7b-ac85-42ee-9e80-64b80ac1a132, 2000-00-00 00:00:18.245, 39.32, 0.7827, 0.6196, 0.0381, 0.3794, 0.3403, 0.1689, 0.12, 0.10, 0.05, 0, 0, 0, 1874.6, 1874.6, 19.8, 1.428, 3.242, 0.782, 0.010, 0.788, 0.131, 1.126, 0.475, 0.035, 0.085, 1.621, 0.000, 1.471, 3.498, 0.620, 0.007, 0.626, 0.141, 0.921, 0.588, 0.108, 0.073, 1.749, 0.000, 3.905, 3.428, 0.038, 0.002, 0.047, 1.223, 0.183, 4.773, -0.062, 3.572, 1.714, 0.028, 0.000, 0.000, 0.000, 0, 0, 6, 3, 0, 1, 0, 0, 2, 45, 52, 14, 34, 10, 6423, 0, 0, 3, 1, 0, 0, 0, 1, 0, 17, 19, 6, 3, 4, 4521, 0, 1, 15, 3, 0, 0, 0, 0, 6, 257, 273, 22, 12, 1, 1083,
 15:13:54.474,e36fca7b-ac85-42ee-9e80-64b80ac1a132, 2000-00-00 00:00:18.490, 39.31, 0.7827, 0.6196, 0.0381, 0.3584, 0.3291, 0.1816, 0.12, 0.10, 0.05, 0, 0, 0, 1878.6, 1910.3, 19.8, 1.476, 3.433, 0.782, 0.012, 0.790, 0.140, 1.167, 0.551, 0.110, 0.091, 1.716, 0.000, 1.525, 3.502, 0.620, 0.008, 0.627, 0.149, 0.956, 0.631, 0.087, 0.075, 1.751, 0.000, 4.083, 3.703, 0.038, 0.001, 0.046, 1.216, 0.189, 5.097, 0.191, 3.515, 1.851, 0.028, 0.000, 0.000, 0.000, 1, 0, 5, 2, 1, 1, 0, 0, 12, 32, 45, 14, 28, 4, 5991, 0, 0, 2, 0, 0, 0, 0, 0, 9, 12, 10, 11, 7, 3, 4373, 1, 0, 14, 2, 1, 0, 0, 0, 1, 221, 246, 36, 7, 3, 1094,
 15:13:54.720,e36fca7b-ac85-42ee-9e80-64b80ac1a132, 2000-00-00 00:00:18.730, 39.29, 0.7827, 0.6196, 0.0381, 0.3794, 0.3389, 0.1851, 0.12, 0.10, 0.05, 0, 0, 0, 1874.6, 1874.6, 19.8, 1.422, 3.200, 0.782, 0.011, 0.789, 0.135, 1.123, 0.498, 0.169, 0.087, 1.600, 0.000, 1.480, 3.206, 0.620, 0.007, 0.626, 0.143, 0.927, 0.571, 0.040, 0.073, 1.603, 0.000, 4.356, 3.606, 0.038, 0.002, 0.046, 1.217, 0.203, 5.250, 0.095, 3.534, 1.803, 0.028, 0.000, 0.000, 0.000, 1, 0, 5, 3, 0, 0, 0, 0, 0, 30, 53, 18, 49, 6, 6382, 0, 0, 3, 2, 0, 0, 0, 0, 2, 17, 23, 9, 6, 3, 4706, 1, 1, 15, 2, 0, 0, 0, 0, 4, 247, 273, 11, 4, 2, 1089,
 15:13:54.962,e36fca7b-ac85-42ee-9e80-64b80ac1a132, 2000-00-00 00:00:18.970, 39.30, 0.7827, 0.6196, 0.0381, 0.3779, 0.3271, 0.1821, 0.13, 0.11, 0.05, 0, 0, 0, 1874.6, 1874.6, 19.8, 1.465, 3.064, 0.782, 0.012, 0.790, 0.143, 1.158, 0.491, -0.050, 0.093, 1.532, 0.000, 1.452, 3.269, 0.620, 0.008, 0.627, 0.149, 0.911, 0.584, 0.131, 0.077, 1.634, 0.000, 3.911, 3.373, 0.038, 0.002, 0.046, 1.220, 0.180, 5.146, 0.122, 3.528, 1.686, 0.028, 0.000, 0.000, 0.000, 1, 0, 5, 1, 0, 1, 0, 0, 2, 33, 43, 9, 47, 7, 6603, 0, 0, 4, 1, 0, 0, 0, 0, 1, 19, 25, 7, 3, 4, 4603, 1, 0, 14, 2, 0, 0, 0, 0, 1, 237, 263, 7, 6, 2, 1108,
 15:13:55.208,e36fca7b-ac85-42ee-9e80-64b80ac1a132, 2000-00-00 00:00:19.210, 39.34, 0.7827, 0.6196, 0.0381, 0.3779, 0.3296, 0.1724, 0.27, 0.22, 0.10, 0, 0, 0, 709.4, 1902.3, 19.8, 1.474, 3.225, 0.782, 0.013, 0.791, 0.146, 1.167, 0.537, 0.047, 0.251, 1.612, 0.000, 1.459, 3.271, 0.620, 0.009, 0.627, 0.155, 0.915, 0.595, 0.161, 0.079, 1.635, 0.000, 3.841, 3.236, 0.038, 0.001, 0.045, 1.209, 0.176, 4.634, 0.052, 3.496, 1.618, 0.028, 0.000, 0.000, 0.000, 0, 0, 5, 2, 0, 1, 0, 0, 6, 39, 45, 12, 37, 9, 6377, 1, 1, 3, 2, 1, 1, 0, 0, 2, 18, 26, 12, 10, 7, 4362, 1, 1, 14, 3, 0, 0, 0, 0, 2, 238, 264, 19, 11, 2, 1067,
 15:13:55.449,e36fca7b-ac85-42ee-9e80-64b80ac1a132, 2000-00-00 00:00:19.455, 39.31, 0.7827, 0.6196, 0.0381, 0.3872, 0.3452, 0.1724, 0.19, 0.16, 0.07, 0, 0, 0, 1874.6, 1874.6, 19.8, 1.486, 3.413, 0.782, 0.011, 0.790, 0.136, 1.174, 0.519, -0.016, 0.088, 1.706, 0.000, 1.520, 3.580, 0.620, 0.008, 0.626, 0.148, 0.953, 0.609, 0.097, 0.076, 1.790, 0.000, 4.149, 3.452, 0.038, 0.002, 0.046, 1.213, 0.194, 4.930, 0.078, 3.545, 1.726, 0.028, 0.000, 0.000, 0.000, 0, 0, 6, 3, 0, 2, 0, 0, 8, 40, 60, 16, 48, 6, 6657, 1, 0, 3, 2, 0, 0, 0, 1, 4, 13, 28, 12, 9, 5, 4855, 0, 1, 15, 2, 1, 1, 1, 0, 1, 244, 261, 35, 13, 3, 1056,
 15:13:55.694,e36fca7b-ac85-42ee-9e80-64b80ac1a132, 2000-00-00 00:00:19.695, 39.32, 0.7827, 0.6196, 0.0381, 0.3618, 0.3335, 0.1772, 0.13, 0.11, 0.05, 0, 0, 0, 1874.6, 1874.6, 19.8, 1.424, 3.183, 0.782, 0.010, 0.789, 0.130, 1.125, 0.453, 0.029, 0.085, 1.591, 0.000, 1.433, 3.418, 0.620, 0.007, 0.626, 0.142, 0.898, 0.581, 0.132, 0.073, 1.709, 0.000, 4.276, 3.807, 0.038, 0.002, 0.047, 1.232, 0.202, 5.300, -0.005, 3.613, 1.903, 0.029, 0.000, 0.000, 0.000, 0, 0, 5, 1, 0, 1, 0, 0, 56, 29, 39, 4, 29, 9, 5688, 0, 0, 3, 1, 0, 0, 0, 0, 34, 14, 17, 9, 2, 3, 4150, 1, 0, 15, 2, 1, 0, 0, 0, 4, 245, 273, 14, 7, 1, 1044,
 15:13:55.937,e36fca7b-ac85-42ee-9e80-64b80ac1a132, 2000-00-00 00:00:19.935, 39.34, 0.7827, 0.6196, 0.0381, 0.3682, 0.3345, 0.1865, 0.12, 0.11, 0.05, 0, 0, 0, 1874.6, 1874.6, 19.8, 1.473, 3.218, 0.782, 0.011, 0.790, 0.137, 1.164, 0.517, 0.026, 0.089, 1.609, 0.000, 1.492, 3.377, 0.620, 0.008, 0.627, 0.148, 0.935, 0.565, 0.115, 0.076, 1.688, 0.000, 4.384, 3.930, 0.038, 0.002, 0.046, 1.233, 0.203, 5.683, 0.116, 3.536, 1.965, 0.028, 0.000, 0.000, 0.000, 0, 0, 5, 2, 0, 1, 0, 0, 14, 31, 43, 13, 27, 6, 5941, 0, 0, 4, 1, 1, 0, 0, 1, 21, 19, 24, 9, 3, 4, 4381, 1, 1, 14, 2, 0, 0, 0, 0, 2, 231, 256, 5, 16, 1, 1027,
 15:13:56.181,e36fca7b-ac85-42ee-9e80-64b80ac1a132, 2000-00-00 00:00:20.175, 39.31, 0.7827, 0.6196, 0.0381, 0.4063, 0.3252, 0.1758, 0.12, 0.10, 0.05, 0, 0, 0, 1902.3, 1902.3, 19.8, 1.546, 3.287, 0.782, 0.012, 0.790, 0.143, 1.223, 0.566, -0.024, 0.092, 1.643, 0.000, 1.474, 3.168, 0.620, 0.008, 0.626, 0.149, 0.924, 0.527, 0.078, 0.075, 1.584, 0.000, 3.787, 3.349, 0.038, 0.002, 0.047, 1.235, 0.180, 4.644, 0.036, 3.677, 1.674, 0.029, 0.000, 0.000, 0.000, 0, 0, 6, 1, 0, 0, 0, 0, 6, 47, 49, 7, 26, 4, 6683, 0, 0, 4, 1, 0, 0, 0, 0, 10, 19, 32, 10, 5, 3, 4526, 1, 0, 15, 2, 0, 0, 0, 0, 2, 234, 272, 14, 15, 1, 1135,
 15:13:56.428,e36fca7b-ac85-42ee-9e80-64b80ac1a132, 2000-00-00 00:00:20.420, 39.33, 0.7827, 0.6196, 0.0381, 0.4058, 0.3169, 0.1738, 0.24, 0.20, 0.10, 0, 0, 0, 709.4, 1910.3, 19.8, 1.523, 3.321, 0.782, 0.012, 0.790, 0.142, 1.204, 0.540, -0.050, 0.244, 1.660, 0.000, 1.514, 3.362, 0.620, 0.008, 0.627, 0.146, 0.949, 0.555, 0.100, 0.074, 1.681, 0.000, 4.102, 3.273, 0.038, 0.002, 0.047, 1.222, 0.194, 5.096, 0.118, 3.645, 1.636, 0.029, 0.000, 0.000, 0.000, 0, 0, 5, 3, 0, 0, 0, 0, 1, 31, 50, 18, 17, 6, 6613, 0, 1, 2, 2, 0, 0, 0, 0, 3, 11, 19, 12, 6, 2, 4513, 0, 1, 15, 2, 0, 0, 0, 0, 8, 242, 259, 34, 15, 2, 1187,
 15:13:56.670,e36fca7b-ac85-42ee-9e80-64b80ac1a132, 2000-00-00 00:00:20.665, 39.33, 0.7827, 0.6196, 0.0381, 0.4165, 0.3433, 0.1748, 0.21, 0.17, 0.08, 0, 0, 0, 1874.6, 1874.6, 19.8, 1.513, 3.328, 0.782, 0.012, 0.790, 0.141, 1.195, 0.546, 0.004, 0.092, 1.664, 0.000, 1.511, 3.530, 0.620, 0.008, 0.626, 0.150, 0.947, 0.590, 0.106, 0.077, 1.765, 0.000, 3.741, 3.178, 0.038, 0.002, 0.047, 1.221, 0.177, 4.610, 0.091, 3.621, 1.589, 0.029, 0.000, 0.000, 0.000, 0, 0, 5, 1, 0, 1, 0, 0, 34, 31, 41, 8, 18, 6, 6877, 0, 1, 4, 2, 0, 0, 0, 1, 40, 24, 30, 11, 3, 3, 4826, 1, 1, 15, 2, 1, 0, 0, 0, 4, 252, 272, 18, 18, 1, 1086,
 15:13:56.912,e36fca7b-ac85-42ee-9e80-64b80ac1a132, 2000-00-00 00:00:20.905, 39.32, 0.7827, 0.6196, 0.0376, 0.3823, 0.3252, 0.1719, 0.14, 0.12, 0.06, 0, 0, 0, 1874.6, 1910.3, 19.8, 1.431, 3.276, 0.782, 0.010, 0.789, 0.131, 1.129, 0.469, 0.032, 0.085, 1.638, 0.000, 1.449, 3.368, 0.620, 0.007, 0.626, 0.143, 0.907, 0.554, 0.123, 0.072, 1.684, 0.000, 4.162, 3.569, 0.038, 0.002, 0.046, 1.237, 0.195, 5.240, 0.034, 3.600, 1.784, 0.028, 0.000, 0.000, 0.000, 0, 0, 5, 2, 0, 0, 0, 1, 0, 34, 43, 12, 12, 4, 5613, 0, 0, 3, 2, 0, 0, 0, 0, 3, 16, 25, 12, 4, 2, 4180, 1, 1, 15, 2, 0, 0, 0, 1, 5, 245, 267, 6, 14, 0, 1122,
 15:13:57.156,e36fca7b-ac85-42ee-9e80-64b80ac1a132, 2000-00-00 00:00:21.145, 39.32, 0.7827, 0.6196, 0.0376, 0.3696, 0.3364, 0.1807, 0.13, 0.11, 0.05, 0, 0, 0, 1874.6, 1874.6, 19.8, 1.409, 3.078, 0.782, 0.011, 0.789, 0.138, 1.113, 0.452, 0.010, 0.090, 1.539, 0.000, 1.492, 3.255, 0.620, 0.008, 0.626, 0.147, 0.935, 0.609, 0.003, 0.075, 1.627, 0.000, 4.169, 3.782, 0.038, 0.002, 0.048, 1.228, 0.201, 5.526, 0.112, 3.668, 1.891, 0.029, 0.000, 0.000, 0.000, 0, 0, 6, 1, 0, 1, 0, 0, 3, 42, 46, 10, 5, 5, 6701, 0, 1, 3, 1, 0, 0, 0, 1, 3, 15, 16, 8, 5, 1, 4790, 1, 1, 14, 2, 0, 0, 0, 0, 4, 223, 254, 12, 25, 1, 1085,
 15:13:57.400,e36fca7b-ac85-42ee-9e80-64b80ac1a132, 2000-00-00 00:00:21.385, 39.30, 0.7827, 0.6196, 0.0381, 0.3735, 0.3296, 0.1978, 0.22, 0.18, 0.09, 0, 0, 0, 709.4, 1874.6, 19.8, 1.527, 3.225, 0.782, 0.013, 0.790, 0.150, 1.208, 0.552, -0.053, 0.259, 1.612, 0.000, 1.461, 3.107, 0.620, 0.009, 0.626, 0.153, 0.916, 0.546, 0.033, 0.078, 1.553, 0.000, 4.386, 3.750, 0.038, 0.002, 0.050, 1.224, 0.220, 5.677, 0.208, 3.845, 1.875, 0.030, 0.000, 0.000, 0.000, 0, 0, 5, 3, 0, 0, 0, 1, 5, 31, 48, 21, 5, 2, 7110, 0, 0, 3, 2, 0, 1, 0, 1, 9, 13, 19, 11, 5, 3, 4849, 1, 1, 15, 3, 0, 0, 0, 0, 5, 248, 264, 29, 20, 1, 1276,
 15:13:57.644,e36fca7b-ac85-42ee-9e80-64b80ac1a132, 2000-00-00 00:00:21.630, 39.30, 0.7827, 0.6196, 0.0381, 0.4165, 0.3271, 0.1851, 0.33, 0.27, 0.13, 0, 0, 0, 709.4, 1910.3, 19.8, 1.543, 3.402, 0.782, 0.013, 0.791, 0.150, 1.221, 0.572, -0.028, 0.259, 1.701, 0.000, 1.502, 3.290, 0.620, 0.009, 0.627, 0.155, 0.942, 0.567, 0.097, 0.078, 1.645, 0.000, 3.944, 3.297, 0.038, 0.002, 0.049, 1.208, 0.197, 4.749, 0.195, 3.802, 1.648, 0.030, 0.000, 0.000, 0.000, 1, 1, 5, 1, 0, 0, 0, 1, 19, 35, 44, 8, 3, 5, 7216, 0, 0, 4, 1, 1, 0, 0, 1, 5, 20, 27, 11, 5, 4, 4544, 1, 0, 15, 2, 1, 0, 0, 0, 2, 235, 261, 32, 21, 2, 1179,
 15:13:57.886,e36fca7b-ac85-42ee-9e80-64b80ac1a132, 2000-00-00 00:00:21.870, 39.29, 0.7827, 0.6201, 0.0381, 0.3892, 0.3135, 0.1675, 0.28, 0.23, 0.11, 0, 0, 0, 1874.6, 1874.6, 709.4, 1.283, 2.742, 0.782, 0.009, 0.794, 0.119, 1.019, 0.330, 0.130, 0.078, 1.371, 0.000, 1.339, 3.447, 0.620, 0.007, 0.628, 0.139, 0.841, 0.444, 0.260, 0.072, 1.723, 0.000, 3.172, 3.601, 0.038, 0.001, 0.047, 1.142, 0.149, 3.772, -0.042, 0.092, 1.800, 0.000, 0.000, 0.000, 0.000, 0, 0, 5, 2, 0, 0, 0, 0, 4, 35, 44, 14, 2, 3, 7610, 0, 0, 3, 1, 0, 0, 0, 0, 2, 10, 15, 15, 5, 2, 4779, 0, 1, 14, 2, 0, 0, 0, 0, 6, 240, 256, 8, 20, 3, 1312,
 15:13:58.131,e36fca7b-ac85-42ee-9e80-64b80ac1a132, 2000-00-00 00:00:22.110, 39.30, 0.7827, 0.6201, 0.0381, 0.3120, 0.2783, 0.1323, 0.16, 0.14, 0.06, 0, 0, 0, 1874.6, 1874.6, 19.8, 1.340, 2.717, 0.782, 0.011, 0.791, 0.135, 1.060, 0.363, -0.040, 0.088, 1.358, 0.000, 1.350, 3.789, 0.620, 0.009, 0.632, 0.156, 0.854, 0.535, 0.385, 0.081, 1.894, 0.000, 3.529, 3.942, 0.038, 0.001, 0.046, 1.183, 0.163, 4.340, 0.426, 3.347, 1.971, 0.026, 0.000, 0.000, 0.000, 0, 0, 5, 1, 0, 0, 0, 0, 11, 29, 36, 9, 6, 2, 7326, 0, 0, 4, 1, 1, 0, 0, 1, 7, 20, 23, 7, 10, 2, 5101, 1, 0, 14, 2, 1, 1, 0, 0, 1, 227, 259, 9, 21, 3, 1149,
 15:13:58.376,e36fca7b-ac85-42ee-9e80-64b80ac1a132, 2000-00-00 00:00:22.355, 39.29, 0.7827, 0.6201, 0.0381, 0.3501, 0.3076, 0.1499, 0.19, 0.17, 0.07, 0, 0, 0, 709.4, 1874.6, 19.8, 1.468, 3.016, 0.782, 0.014, 0.792, 0.153, 1.163, 0.525, 0.013, 0.099, 1.508, 0.000, 1.473, 3.317, 0.620, 0.010, 0.629, 0.164, 0.927, 0.577, 0.091, 0.084, 1.658, 0.000, 3.796, 3.571, 0.038, 0.002, 0.050, 1.220, 0.190, 4.693, 0.158, 3.773, 1.785, 0.030, 0.000, 0.000, 0.000, 0, 0, 6, 3, 0, 0, 0, 0, 2, 38, 52, 17, 5, 12, 7015, 0, 1, 3, 2, 0, 0, 0, 1, 4, 18, 24, 15, 7, 2, 4852, 0, 1, 15, 2, 0, 0, 0, 1, 4, 248, 268, 21, 20, 1, 1252,
 15:13:58.618,e36fca7b-ac85-42ee-9e80-64b80ac1a132, 2000-00-00 00:00:22.595, 39.30, 0.7827, 0.6201, 0.0381, 0.3921, 0.3418, 0.1763, 0.33, 0.28, 0.13, 0, 0, 0, 709.4, 1878.6, 19.8, 1.560, 3.194, 0.782, 0.017, 0.793, 0.166, 1.238, 0.611, 0.038, 0.285, 1.597, 0.000, 1.524, 3.208, 0.620, 0.011, 0.629, 0.170, 0.959, 0.653, 0.046, 0.088, 1.604, 0.000, 3.959, 3.403, 0.038, 0.002, 0.053, 1.244, 0.211, 4.861, -0.066, 4.118, 1.701, 0.033, 0.000, 0.000, 0.000, 0, 0, 5, 2, 0, 0, 0, 0, 4, 34, 50, 10, 10, 3, 9066, 0, 1, 3, 0, 0, 0, 0, 0, 7, 20, 23, 9, 3, 2, 6067, 1, 0, 14, 2, 1, 0, 0, 0, 1, 228, 259, 36, 19, 1, 1407,
 15:13:58.862,e36fca7b-ac85-42ee-9e80-64b80ac1a132, 2000-00-00 00:00:22.835, 39.30, 0.7827, 0.6201, 0.0381, 0.4224, 0.3682, 0.1855, 0.37, 0.31, 0.15, 0, 0, 0, 709.4, 1874.6, 19.8, 1.523, 3.125, 0.782, 0.015, 0.792, 0.158, 1.207, 0.551, 0.024, 0.273, 1.562, 0.000, 1.536, 3.458, 0.620, 0.010, 0.629, 0.168, 0.967, 0.681, 0.085, 0.086, 1.729, 0.000, 4.247, 3.504, 0.038, 0.002, 0.052, 1.242, 0.221, 5.306, -0.089, 4.009, 1.752, 0.032, 0.000, 0.000, 0.000, 1, 0, 5, 3, 1, 0, 0, 0, 3, 34, 54, 15, 13, 9, 7475, 1, 0, 3, 2, 0, 0, 0, 1, 1, 12, 25, 16, 9, 4, 5302, 0, 1, 15, 2, 1, 0, 0, 0, 5, 252, 266, 9, 9, 2, 1208,
 15:13:59.105,e36fca7b-ac85-42ee-9e80-64b80ac1a132, 2000-00-00 00:00:23.080, 39.30, 0.7827, 0.6201, 0.0381, 0.4097, 0.3564, 0.1895, 0.35, 0.29, 0.14, 0, 0, 0, 1874.6, 1874.6, 19.8, 1.449, 3.110, 0.782, 0.013, 0.791, 0.148, 1.146, 0.589, 0.082, 0.254, 1.555, 0.000, 1.526, 3.239, 0.620, 0.009, 0.627, 0.160, 0.958, 0.630, 0.075, 0.082, 1.619, 0.000, 4.649, 3.492, 0.038, 0.002, 0.046, 1.233, 0.217, 5.624, -0.013, 3.595, 1.746, 0.028, 0.000, 0.000, 0.000, 0, 0, 5, 1, 0, 1, 0, 0, 2, 29, 33, 9, 24, 5, 6779, 0, 0, 4, 1, 0, 0, 1, 0, 0, 18, 24, 8, 7, 4, 4992, 1, 0, 14, 2, 1, 0, 1, 1, 0, 229, 265, 8, 14, 5, 1050,
 15:13:59.350,e36fca7b-ac85-42ee-9e80-64b80ac1a132, 2000-00-00 00:00:23.320, 39.30, 0.7827, 0.6201, 0.0381, 0.3911, 0.3428, 0.1807, 0.18, 0.15, 0.07, 0, 0, 0, 1874.6, 1874.6, 19.8, 1.466, 3.042, 0.782, 0.013, 0.790, 0.148, 1.159, 0.529, 0.070, 0.096, 1.521, 0.000, 1.514, 3.245, 0.620, 0.009, 0.628, 0.158, 0.951, 0.586, 0.074, 0.081, 1.622, 0.000, 4.086, 3.579, 0.038, 0.002, 0.046, 1.247, 0.189, 4.988, 0.026, 3.551, 1.789, 0.028, 0.000, 0.000, 0.000, 0, 0, 6, 2, 0, 1, 0, 0, 13, 45, 57, 17, 21, 13, 7305, 0, 0, 4, 1, 0, 0, 1, 0, 0, 18, 24, 8, 7, 4, 4992, 1, 0, 14, 2, 1, 0, 1, 1, 0, 229, 265, 8, 14, 5, 1050,
 15:13:59.593,e36fca7b-ac85-42ee-9e80-64b80ac1a132, 2000-00-00 00:00:23.560, 39.29, 0.7827, 0.6201, 0.0381, 0.3911, 0.3472, 0.1787, 0.14, 0.12, 0.05, 0, 0, 0, 1874.6, 1874.6, 19.8, 1.474, 3.134, 0.782, 0.012, 0.790, 0.145, 1.165, 0.509, 0.026, 0.094, 1.567, 0.000, 1.517, 3.401, 0.620, 0.009, 0.627, 0.156, 0.952, 0.585, 0.050, 0.080, 1.700, 0.000, 4.019, 3.396, 0.038, 0.001, 0.046, 1.213, 0.185, 4.937, 0.091, 3.489, 1.698, 0.028, 0.000, 0.000, 0.000, 0, 0, 6, 2, 0, 1, 0, 0, 13, 45, 57, 17, 21, 13, 7305, 0, 0, 2, 1, 1, 0, 0, 0, 17, 9, 14, 11, 8, 3, 5052, 1, 1, 15, 2, 0, 0, 0, 0, 3, 241, 267, 20, 13, 2, 1066,
 15:13:59.837,e36fca7b-ac85-42ee-9e80-64b80ac1a132, 2000-00-00 00:00:23.805, 39.28, 0.7827, 0.6201, 0.0381, 0.3965, 0.3491, 0.1709, 0.13, 0.11, 0.05, 0, 0, 0, 1874.6, 1874.6, 19.8, 1.468, 3.320, 0.782, 0.011, 0.789, 0.135, 1.158, 0.515, 0.052, 0.088, 1.660, 0.000, 1.490, 3.529, 0.620, 0.008, 0.626, 0.146, 0.934, 0.611, 0.093, 0.075, 1.764, 0.000, 4.023, 3.217, 0.038, 0.002, 0.046, 1.222, 0.187, 4.931, 0.024, 3.559, 1.608, 0.028, 0.000, 0.000, 0.000, 1, 0, 4, 1, 0, 0, 0, 0, 26, 26, 39, 9, 29, 4, 6607, 0, 1, 3, 1, 0, 0, 0, 0, 33, 14, 14, 12, 6, 1, 5062, 1, 0, 14, 2, 0, 0, 0, 0, 2, 236, 261, 38, 13, 1, 1056,
 15:14:00.080,e36fca7b-ac85-42ee-9e80-64b80ac1a132, 2000-00-00 00:00:24.045, 39.30, 0.7827, 0.6201, 0.0381, 0.3755, 0.3306, 0.1621, 0.12, 0.10, 0.05, 0, 0, 0, 1874.6, 1874.6, 19.8, 1.471, 3.158, 0.782, 0.011, 0.789, 0.134, 1.161, 0.491, 0.043, 0.087, 1.579, 0.000, 1.441, 3.277, 0.620, 0.008, 0.626, 0.145, 0.903, 0.565, 0.082, 0.075, 1.638, 0.000, 4.563, 3.386, 0.038, 0.001, 0.044, 1.205, 0.202, 5.464, -0.048, 3.348, 1.693, 0.026, 0.000, 0.000, 0.000, 0, 0, 5, 3, 0, 1, 0, 0, 11, 35, 48, 16, 25, 7, 5614, 0, 1, 4, 2, 0, 0, 0, 0, 13, 24, 28, 20, 10, 4, 4055, 0, 1, 15, 2, 0, 0, 0, 0, 3, 253, 264, 14, 5, 1, 1049,
 15:14:00.323,e36fca7b-ac85-42ee-9e80-64b80ac1a132, 2000-00-00 00:00:24.285, 39.32, 0.7827, 0.6201, 0.0381, 0.3613, 0.3228, 0.1587, 0.12, 0.10, 0.05, 0, 0, 0, 1874.6, 1874.6, 19.8, 1.430, 2.972, 0.782, 0.010, 0.789, 0.133, 1.128, 0.467, 0.035, 0.086, 1.486, 0.000, 1.480, 3.250, 0.620, 0.008, 0.626, 0.146, 0.927, 0.526, 0.067, 0.075, 1.625, 0.000, 4.143, 3.403, 0.038, 0.001, 0.044, 1.211, 0.184, 4.907, -0.085, 3.352, 1.701, 0.026, 0.000, 0.000, 0.000, 0, 0, 5, 1, 0, 1, 0, 0, 1, 35, 43, 10, 32, 7, 5327, 0, 0, 3, 2, 1, 1, 0, 1, 2, 14, 20, 14, 9, 4, 3978, 1, 0, 14, 2, 0, 0, 0, 0, 2, 221, 248, 5, 8, 2, 905,
 15:14:00.567,e36fca7b-ac85-42ee-9e80-64b80ac1a132, 2000-00-00 00:00:24.530, 39.31, 0.7827, 0.6201, 0.0376, 0.3638, 0.3188, 0.1626, 0.12, 0.10, 0.04, 0, 0, 0, 1874.6, 1874.6, 19.8, 1.444, 3.069, 0.782, 0.012, 0.791, 0.142, 1.143, 0.521, 0.081, 0.093, 1.534, 0.000, 1.492, 3.261, 0.620, 0.009, 0.627, 0.155, 0.937, 0.583, 0.080, 0.080, 1.630, 0.000, 4.402, 3.724, 0.038, 0.001, 0.043, 1.221, 0.189, 5.688, 0.109, 3.261, 1.862, 0.026, 0.000, 0.000, 0.000, 0, 1, 6, 2, 0, 1, 0, 0, 3, 41, 52, 16, 36, 4, 6014, 1, 0, 2, 2, 0, 0, 0, 1, 7, 6, 15, 9, 4, 2, 4537, 2, 1, 15, 3, 0, 0, 0, 0, 2, 241, 270, 17, 9, 1, 950,
 15:14:00.812,e36fca7b-ac85-42ee-9e80-64b80ac1a132, 2000-00-00 00:00:24.770, 39.30, 0.7827, 0.6201, 0.0376, 0.3765, 0.3271, 0.1626, 0.12, 0.10, 0.04, 0, 0, 0, 1898.4, 1898.4, 19.8, 1.458, 3.205, 0.782, 0.010, 0.789, 0.132, 1.151, 0.493, 0.034, 0.085, 1.602, 0.000, 1.481, 3.316, 0.620, 0.008, 0.626, 0.146, 0.928, 0.518, 0.072, 0.074, 1.658, 0.000, 3.877, 3.537, 0.037, 0.001, 0.043, 1.213, 0.167, 4.931, 0.177, 3.266, 1.768, 0.026, 0.000, 0.000, 0.000, 1, 0, 6, 3, 0, 1, 0, 0, 5, 37, 54, 16, 39, 9, 5932, 0, 0, 3, 1, 0, 0, 0, 0, 6, 16, 18, 10, 5, 3, 4333, 1, 1, 15, 2, 0, 0, 0, 0, 3, 247, 261, 29, 11, 1, 897,
 15:14:01.059,e36fca7b-ac85-42ee-9e80-64b80ac1a132, 2000-00-00 00:00:25.015, 39.25, 0.7827, 0.6201, 0.0376, 0.3779, 0.3325, 0.1587, 0.12, 0.10, 0.04, 0, 0, 0, 1874.6, 1874.6, 19.8, 1.473, 3.394, 0.782, 0.010, 0.789, 0.133, 1.163, 0.507, 0.030, 0.087, 1.697, 0.000, 1.495, 3.497, 0.620, 0.008, 0.626, 0.145, 0.936, 0.610, 0.102, 0.074, 1.748, 0.000, 3.833, 3.378, 0.037, 0.001, 0.043, 1.206, 0.168, 4.681, 0.098, 3.303, 1.689, 0.026, 0.000, 0.000, 0.000, 0, 0, 5, 1, 1, 1, 0, 0, 11, 31, 38, 5, 35, 7, 5661, 0, 1, 3, 1, 1, 0, 0, 0, 3, 18, 22, 10, 7, 2, 4253, 1, 1, 15, 2, 1, 1, 0, 0, 4, 241, 267, 22, 6, 3, 906,
 15:14:01.304,e36fca7b-ac85-42ee-9e80-64b80ac1a132, 2000-00-00 00:00:25.255, 39.27, 0.7827, 0.6201, 0.0376, 0.3765, 0.3472, 0.1558, 0.12, 0.10, 0.04, 0, 0, 0, 1874.6, 1874.6, 19.8, 1.432, 3.303, 0.782, 0.010, 0.789, 0.128, 1.130, 0.479, 0.031, 0.083, 1.651, 0.000, 1.540, 3.712, 0.620, 0.007, 0.626, 0.142, 0.965, 0.623, 0.082, 0.073, 1.856, 0.000, 4.042, 3.246, 0.037, 0.001, 0.042, 1.209, 0.173, 4.814, -0.013, 3.254, 1.623, 0.026, 0.000, 0.000, 0.000, 0, 0, 5, 2, 0, 1, 0, 0, 1, 38, 46, 9, 32, 5, 6003, 1, 0, 3, 1, 1, 1, 0, 1, 1, 12, 19, 6, 4, 3, 4554, 1, 1, 14, 2, 0, 0, 0, 0, 4, 229, 259, 4, 6, 3, 883,
 15:14:01.548,e36fca7b-ac85-42ee-9e80-64b80ac1a132, 2000-00-00 00:00:25.500, 39.27, 0.7827, 0.6201, 0.0376, 0.3394, 0.3389, 0.1792, 0.12, 0.10, 0.04, 0, 0, 0, 1866.7, 1866.7, 19.8, 1.429, 3.138, 0.782, 0.010, 0.790, 0.131, 1.129, 0.450, 0.004, 0.085, 1.569, 0.000, 1.481, 3.431, 0.620, 0.008, 0.626, 0.145, 0.928, 0.596, 0.096, 0.075, 1.715, 0.000, 4.709, 3.506, 0.037, 0.001, 0.043, 1.201, 0.202, 5.590, 0.078, 3.244, 1.753, 0.026, 0.000, 0.000, 0.000, 0, 0, 5, 1, 0, 1, 0, 0, 1, 34, 42, 12, 46, 6, 5203, 0, 0, 3, 2, 0, 1, 0, 0, 3, 15, 21, 13, 9, 4, 3915, 1, 1, 14, 2, 1, 0, 0, 0, 4, 233, 267, 15, 10, 1, 919,
 15:14:01.793,e36fca7b-ac85-42ee-9e80-64b80ac1a132, 2000-00-00 00:00:25.740, 39.29, 0.7827, 0.6201, 0.0376, 0.3501, 0.3369, 0.1680, 0.12, 0.10, 0.04, 0, 0, 0, 1874.6, 1874.6, 19.8, 1.430, 3.089, 0.782, 0.010, 0.789, 0.133, 1.130, 0.453, -0.045, 0.086, 1.544, 0.000, 1.484, 3.360, 0.620, 0.008, 0.627, 0.146, 0.931, 0.572, 0.161, 0.075, 1.680, 0.000, 4.377, 3.661, 0.037, 0.001, 0.042, 1.225, 0.187, 5.681, 0.139, 3.275, 1.830, 0.026, 0.000, 0.000, 0.000, 1, 0, 6, 3, 0, 0, 0, 0, 6, 39, 51, 25, 29, 6, 6204, 0, 0, 3, 2, 0, 0, 1, 1, 10, 14, 21, 14, 5, 3, 4892, 1, 1, 15, 2, 0, 0, 0, 0, 6, 254, 268, 28, 11, 0, 953,
 15:14:02.038,e36fca7b-ac85-42ee-9e80-64b80ac1a132, 2000-00-00 00:00:25.985, 39.28, 0.7827, 0.6201, 0.0371, 0.3325, 0.3237, 0.1719, 0.12, 0.10, 0.04, 0, 0, 0, 1874.6, 1874.6, 19.8, 1.402, 2.999, 0.782, 0.010, 0.789, 0.129, 1.107, 0.420, -0.001, 0.084, 1.499, 0.000, 1.459, 3.271, 0.620, 0.008, 0.626, 0.144, 0.914, 0.532, 0.068, 0.074, 1.635, 0.000, 4.218, 3.875, 0.037, 0.001, 0.043, 1.224, 0.183, 5.560, 0.191, 3.296, 1.937, 0.026, 0.000, 0.000, 0.000, 1, 0, 5, 1, 0, 0, 0, 0, 1, 36, 42, 8, 33, 4, 5591, 0, 0, 3, 1, 0, 0, 0, 1, 3, 16, 21, 17, 2, 3, 4074, 1, 1, 14, 2, 1, 0, 0, 0, 3, 238, 260, 23, 11, 2, 858,
 15:14:02.281,e36fca7b-ac85-42ee-9e80-64b80ac1a132, 2000-00-00 00:00:26.230, 39.28, 0.7827, 0.6201, 0.0371, 0.3511, 0.3232, 0.1636, 0.12, 0.10, 0.04, 0, 0, 0, 1874.6, 1874.6, 19.8, 1.425, 3.222, 0.782, 0.009, 0.788, 0.126, 1.124, 0.472, 0.045, 0.082, 1.611, 0.000, 1.443, 3.353, 0.620, 0.007, 0.626, 0.139, 0.903, 0.507, 0.092, 0.072, 1.676, 0.000, 3.948, 3.354, 0.037, 0.001, 0.043, 1.217, 0.170, 5.168, 0.154, 3.300, 1.677, 0.026, 0.000, 0.000, 0.000, 0, 0, 5, 2, 1, 1, 0, 0, 3, 31, 45, 12, 28, 5, 5433, 1, 0, 3, 2, 0, 0, 0, 0, 1, 15, 26, 15, 4, 4, 4081, 1, 1, 15, 1, 1, 0, 0, 1, 4, 245, 262, 6, 14, 2, 918,
 15:14:02.525,e36fca7b-ac85-42ee-9e80-64b80ac1a132, 2000-00-00 00:00:26.470, 39.28, 0.7827, 0.6201, 0.0371, 0.3564, 0.3140, 0.1611, 0.11, 0.10, 0.04, 0, 0, 0, 1878.6, 1878.6, 19.8, 1.444, 3.087, 0.782, 0.010, 0.789, 0.130, 1.140, 0.469, -0.003, 0.084, 1.543, 0.000, 1.482, 3.255, 0.620, 0.007, 0.626, 0.141, 0.929, 0.519, 0.055, 0.073, 1.627, 0.000, 4.128, 3.311, 0.037, 0.001, 0.042, 1.218, 0.176, 5.240, 0.095, 3.265, 1.655, 0.026, 0.000, 0.000, 0.000, 0, 0, 5, 2, 1, 0, 0, 0, 0, 37, 46, 20, 18, 5, 5611, 0, 0, 3, 2, 1, 0, 0, 1, 1, 17, 26, 12, 5, 1, 4088, 1, 0, 14, 2, 1, 0, 0, 0, 1, 226, 270, 10, 16, 1, 931,
 15:14:02.770,e36fca7b-ac85-42ee-9e80-64b80ac1a132, 2000-00-00 00:00:26.710, 39.31, 0.7827, 0.6201, 0.0371, 0.3555, 0.3252, 0.1597, 0.12, 0.10, 0.04, 0, 0, 0, 1823.1, 2001.4, 19.8, 1.497, 3.070, 0.782, 0.011, 0.789, 0.138, 1.182, 0.513, -0.021, 0.092, 1.535, 0.000, 1.519, 3.342, 0.620, 0.009, 0.626, 0.152, 0.952, 0.623, 0.067, 0.073, 1.671, 0.000, 3.783, 3.231, 0.037, 0.001, 0.044, 1.201, 0.166, 4.794, 0.141, 3.357, 1.615, 0.026, 0.000, 0.000, 0.000, 0, 0, 5, 3, 0, 0, 0, 0, 11, 36, 47, 20, 12, 6, 5124, 0, 1, 3, 2, 0, 0, 1, 0, 22, 12, 19, 12, 8, 7, 4061, 0, 1, 15, 3, 0, 0, 0, 0, 7, 255, 278, 24, 19, 1, 915,
 15:14:03.013,e36fca7b-ac85-42ee-9e80-64b80ac1a132, 2000-00-00 00:00:26.955, 39.30, 0.7827, 0.6201, 0.0371, 0.3604, 0.3438, 0.1592, 0.12, 0.10, 0.05, 0, 0, 0, 1870.6, 1910.3, 19.8, 1.467, 3.018, 0.782, 0.010, 0.789, 0.133, 1.157, 0.480, -0.052, 0.087, 1.509, 0.000, 1.498, 3.352, 0.620, 0.008, 0.626, 0.148, 0.938, 0.591, 0.136, 0.075, 1.676, 0.000, 3.849, 3.416, 0.037, 0.001, 0.043, 1.222, 0.168, 5.044, 0.172, 3.349, 1.708, 0.026, 0.000, 0.000, 0.000, 0, 0, 5, 2, 0, 1, 0, 0, 1, 37, 50, 12, 14, 6, 6279, 0, 0, 3, 2, 0, 0, 0, 0, 1, 14, 23, 16, 4, 2, 4848, 1, 1, 15, 2, 1, 1, 0, 0, 2, 245, 270, 31, 15, 5, 1000,
 15:14:03.256,e36fca7b-ac85-42ee-9e80-64b80ac1a132, 2000-00-00 00:00:27.195, 39.29, 0.7827, 0.6201, 0.0371, 0.3486, 0.3413, 0.1577, 0.12, 0.11, 0.05, 0, 0, 0, 1874.6, 1874.6, 19.8, 1.460, 3.032, 0.782, 0.011, 0.789, 0.136, 1.153, 0.476, -0.020, 0.088, 1.516, 0.000, 1.550, 3.296, 0.620, 0.008, 0.627, 0.150, 0.972, 0.593, 0.002, 0.077, 1.648, 0.000, 3.789, 3.579, 0.037, 0.001, 0.045, 1.210, 0.172, 4.782, 0.164, 3.422, 1.789, 0.027, 0.000, 0.000, 0.000, 0, 0, 5, 1, 0, 0, 0, 0, 10, 36, 43, 7, 9, 3, 6296, 1, 0, 4, 1, 0, 1, 0, 1, 4, 20, 26, 9, 5, 4, 5034, 1, 1, 15, 2, 0, 0, 0, 0, 4, 257, 275, 9, 16, 1, 947,
 15:14:03.499,e36fca7b-ac85-42ee-9e80-64b80ac1a132, 2000-00-00 00:00:27.435, 39.29, 0.7827, 0.6201, 0.0371, 0.3721, 0.3506, 0.1646, 0.12, 0.11, 0.05, 0, 0, 0, 1874.6, 1874.6, 19.8, 1.498, 3.076, 0.782, 0.012, 0.789, 0.140, 1.183, 0.526, 0.001, 0.091, 1.538, 0.000, 1.548, 3.344, 0.620, 0.008, 0.627, 0.152, 0.970, 0.608, 0.007, 0.078, 1.672, 0.000, 4.069, 3.764, 0.037, 0.001, 0.044, 1.223, 0.181, 5.437, 0.231, 3.363, 1.882, 0.027, 0.000, 0.000, 0.000, 0, 0, 5, 2, 0, 0, 0, 0, 10, 36, 44, 17, 5, 3, 5843, 0, 0, 4, 1, 1, 0, 0, 1, 7, 19, 28, 11, 5, 3, 4609, 1, 0, 14, 2, 1, 1, 0, 0, 1, 228, 260, 7, 14, 3, 998,
 15:14:03.743,e36fca7b-ac85-42ee-9e80-64b80ac1a132, 2000-00-00 00:00:27.675, 39.30, 0.7827, 0.6201, 0.0371, 0.3809, 0.3574, 0.1714, 0.12, 0.10, 0.05, 0, 0, 0, 1902.3, 1902.3, 19.8, 1.485, 3.409, 0.782, 0.010, 0.790, 0.132, 1.173, 0.520, -0.018, 0.085, 1.704, 0.000, 1.493, 3.406, 0.620, 0.007, 0.626, 0.143, 0.935, 0.571, 0.067, 0.072, 1.703, 0.000, 4.040, 3.489, 0.037, 0.001, 0.044, 1.214, 0.177, 5.055, 0.146, 3.329, 1.744, 0.026, 0.000, 0.000, 0.000, 0, 1, 6, 1, 0, 0, 0, 0, 24, 43, 46, 11, 2, 7, 5801, 1, 0, 3, 2, 0, 0, 0, 0, 11, 11, 21, 12, 7, 3, 4307, 1, 1, 15, 3, 0, 1, 0, 0, 3, 243, 270, 22, 25, 3, 978,
 15:14:03.988,e36fca7b-ac85-42ee-9e80-64b80ac1a132, 2000-00-00 00:00:27.920, 39.30, 0.7827, 0.6201, 0.0371, 0.3735, 0.3384, 0.1636, 0.12, 0.10, 0.05, 0, 0, 0, 1898.4, 1898.4, 19.8, 1.432, 3.258, 0.782, 0.010, 0.789, 0.130, 1.130, 0.460, 0.009, 0.083, 1.629, 0.000, 1.470, 3.392, 0.620, 0.007, 0.626, 0.143, 0.921, 0.570, 0.097, 0.073, 1.696, 0.000, 3.627, 3.341, 0.037, 0.001, 0.045, 1.204, 0.164, 4.540, 0.141, 3.418, 1.670, 0.027, 0.000, 0.000, 0.000, 0, 0, 5, 2, 1, 0, 0, 0, 7, 32, 42, 13, 5, 4, 5131, 0, 0, 4, 2, 0, 0, 0, 0, 8, 22, 30, 13, 8, 3, 4124, 1, 0, 15, 1, 0, 1, 0, 0, 1, 243, 272, 29, 25, 5, 966,
 15:14:04.230,e36fca7b-ac85-42ee-9e80-64b80ac1a132, 2000-00-00 00:00:28.160, 39.33, 0.7827, 0.6201, 0.0366, 0.3740, 0.3418, 0.1665, 0.12, 0.10, 0.05, 0, 0, 0, 1874.6, 1874.6, 19.8, 1.488, 3.195, 0.782, 0.012, 0.789, 0.140, 1.175, 0.507, -0.026, 0.090, 1.597, 0.000, 1.515, 3.420, 0.620, 0.009, 0.627, 0.153, 0.950, 0.585, 0.093, 0.078, 1.710, 0.000, 3.834, 3.343, 0.037, 0.001, 0.044, 1.200, 0.171, 4.938, 0.142, 3.382, 1.671, 0.027, 0.000, 0.000, 0.000, 0, 0, 5, 1, 0, 0, 1, 0, 9, 34, 38, 9, 5, 6, 6697, 0, 0, 4, 1, 0, 0, 0, 0, 2, 21, 32, 12, 2, 3, 4904, 0, 1, 15, 2, 0, 0, 0, 0, 6, 250, 272, 13, 17, 2, 1029,
 15:14:04.472,e36fca7b-ac85-42ee-9e80-64b80ac1a132, 2000-00-00 00:00:28.400, 39.31, 0.7827, 0.6201, 0.0366, 0.3760, 0.3535, 0.1670, 0.12, 0.11, 0.05, 0, 0, 0, 1874.6, 1874.6, 19.8, 1.478, 3.192, 0.782, 0.011, 0.790, 0.138, 1.169, 0.494, -0.007, 0.090, 1.596, 0.000, 1.496, 3.313, 0.620, 0.008, 0.627, 0.152, 0.938, 0.607, 0.094, 0.078, 1.656, 0.000, 4.095, 3.385, 0.037, 0.001, 0.044, 1.218, 0.184, 4.904, 0.027, 3.415, 1.692, 0.027, 0.000, 0.000, 0.000, 0, 0, 6, 2, 0, 0, 0, 0, 18, 41, 48, 12, 5, 6, 6372, 0, 0, 3, 1, 0, 1, 0, 0, 16, 17, 16, 8, 7, 3, 4927, 1, 0, 14, 2, 0, 1, 0, 0, 0, 222, 264, 8, 18, 2, 1030,
 15:14:04.717,e36fca7b-ac85-42ee-9e80-64b80ac1a132, 2000-00-00 00:00:28.640, 39.30, 0.7827, 0.6201, 0.0366, 0.3506, 0.3301, 0.1729, 0.12, 0.10, 0.05, 0, 0, 0, 1874.6, 1874.6, 19.8, 1.411, 3.085, 0.782, 0.010, 0.789, 0.133, 1.114, 0.437, 0.025, 0.087, 1.542, 0.000, 1.467, 3.265, 0.620, 0.008, 0.627, 0.148, 0.920, 0.547, 0.083, 0.076, 1.632, 0.000, 4.062, 3.453, 0.037, 0.002, 0.046, 1.222, 0.188, 5.206, 0.000, 3.524, 1.726, 0.028, 0.000, 0.000, 0.000, 0, 1, 6, 2, 0, 0, 0, 0, 3, 42, 46, 16, 9, 4, 5701, 1, 0, 4, 2, 1, 0, 0, 0, 7, 23, 33, 15, 6, 4, 4384, 1, 1, 15, 2, 0, 1, 0, 0, 4, 251, 277, 15, 16, 2, 1038,
 15:14:04.960,e36fca7b-ac85-42ee-9e80-64b80ac1a132, 2000-00-00 00:00:28.885, 39.32, 0.7827, 0.6201, 0.0366, 0.3735, 0.3452, 0.1699, 0.12, 0.10, 0.05, 0, 0, 0, 1874.6, 1874.6, 19.8, 1.470, 3.211, 0.782, 0.011, 0.790, 0.137, 1.161, 0.494, 0.032, 0.089, 1.605, 0.000, 1.485, 3.316, 0.620, 0.008, 0.627, 0.151, 0.932, 0.588, 0.023, 0.078, 1.658, 0.000, 4.122, 3.411, 0.037, 0.001, 0.046, 1.231, 0.189, 5.225, 0.076, 3.518, 1.705, 0.028, 0.000, 0.000, 0.000, 1, 0, 5, 3, 1, 0, 0, 1, 1, 30, 48, 17, 18, 9, 5614, 1, 0, 2, 2, 0, 1, 0, 1, 7, 12, 17, 21, 11, 5, 4557, 1, 1, 14, 2, 0, 1, 0, 0, 4, 234, 251, 30, 21, 5, 1051,
 15:14:05.205,e36fca7b-ac85-42ee-9e80-64b80ac1a132, 2000-00-00 00:00:29.125, 39.31, 0.7827, 0.6201, 0.0366, 0.3682, 0.3394, 0.1733, 0.12, 0.10, 0.05, 0, 0, 0, 1898.4, 1898.4, 19.8, 1.451, 3.216, 0.782, 0.011, 0.790, 0.134, 1.146, 0.468, -0.005, 0.087, 1.608, 0.000, 1.523, 3.352, 0.620, 0.008, 0.627, 0.149, 0.955, 0.579, 0.021, 0.077, 1.676, 0.000, 4.000, 3.451, 0.036, 0.001, 0.045, 1.209, 0.181, 4.865, 0.171, 3.455, 1.725, 0.027, 0.000, 0.000, 0.000, 0, 1, 6, 2, 1, 0, 0, 0, 7, 39, 49, 13, 17, 7, 5726, 0, 0, 3, 2, 0, 0, 0, 0, 2, 16, 26, 13, 2, 5, 4496, 1, 1, 15, 2, 1, 0, 0, 0, 6, 252, 264, 15, 11, 2, 1046,
 15:14:05.449,e36fca7b-ac85-42ee-9e80-64b80ac1a132, 2000-00-00 00:00:29.365, 39.31, 0.7827, 0.6201, 0.0366, 0.3745, 0.3452, 0.1685, 0.12, 0.10, 0.05, 0, 0, 0, 1874.6, 1874.6, 19.8, 1.427, 3.210, 0.782, 0.012, 0.790, 0.142, 1.128, 0.516, 0.064, 0.091, 1.605, 0.000, 1.564, 3.272, 0.620, 0.009, 0.627, 0.154, 0.982, 0.602, -0.022, 0.078, 1.636, 0.000, 3.719, 3.488, 0.036, 0.002, 0.046, 1.241, 0.171, 4.888, 0.182, 3.540, 1.744, 0.028, 0.000, 0.000, 0.000, 0, 0, 5, 2, 0, 1, 0, 0, 12, 31, 41, 12, 29, 3, 6516, 0, 0, 4, 1, 1, 0, 0, 0, 9, 19, 25, 12, 10, 4, 4760, 2, 0, 15, 1, 0, 0, 0, 0, 2, 236, 267, 4, 17, 1, 1022,
 15:14:05.693,e36fca7b-ac85-42ee-9e80-64b80ac1a132, 2000-00-00 00:00:29.610, 39.32, 0.7822, 0.6201, 0.0366, 0.3809, 0.3521, 0.1611, 0.13, 0.11, 0.05, 0, 0, 0, 1874.6, 1874.6, 19.8, 1.455, 2.996, 0.782, 0.014, 0.791, 0.151, 1.151, 0.537, 0.046, 0.098, 1.498, 0.000, 1.539, 3.234, 0.620, 0.009, 0.628, 0.160, 0.968, 0.626, 0.065, 0.082, 1.617, 0.000, 3.706, 3.096, 0.037, 0.002, 0.047, 1.220, 0.175, 4.479, 0.043, 3.621, 1.548, 0.029, 0.000, 0.000, 0.000, 0, 0, 5, 1, 0, 1, 0, 0, 0, 33, 39, 12, 26, 5, 6962, 0, 0, 4, 1, 1, 0, 0, 0, 9, 19, 25, 12, 10, 4, 4760, 2, 0, 15, 1, 0, 0, 0, 0, 2, 236, 267, 4, 17, 1, 1022,
 15:14:05.936,e36fca7b-ac85-42ee-9e80-64b80ac1a132, 2000-00-00 00:00:29.850, 39.31, 0.7822, 0.6201, 0.0366, 0.3765, 0.3530, 0.1665, 0.13, 0.11, 0.05, 0, 0, 0, 1874.6, 1874.6, 19.8, 1.500, 3.239, 0.782, 0.013, 0.790, 0.146, 1.185, 0.592, 0.010, 0.095, 1.619, 0.000, 1.518, 3.246, 0.620, 0.009, 0.627, 0.155, 0.952, 0.580, 0.096, 0.079, 1.623, 0.000, 4.428, 3.418, 0.037, 0.002, 0.050, 1.235, 0.222, 5.356, -0.124, 3.834, 1.709, 0.030, 0.000, 0.000, 0.000, 0, 0, 5, 1, 0, 1, 0, 0, 0, 33, 39, 12, 26, 5, 6962, 0, 0, 3, 1, 0, 0, 0, 0, 3, 14, 22, 4, 3, 3, 4708, 1, 0, 15, 3, 1, 0, 0, 0, 2, 244, 275, 15, 9, 2, 1177,
 15:14:06.179,e36fca7b-ac85-42ee-9e80-64b80ac1a132, 2000-00-00 00:00:30.095, 39.31, 0.7822, 0.6201, 0.0366, 0.4072, 0.3643, 0.1777, 0.13, 0.11, 0.05, 0, 0, 0, 1874.6, 1874.6, 19.8, 1.535, 3.451, 0.782, 0.012, 0.790, 0.144, 1.213, 0.579, 0.088, 0.093, 1.725, 0.000, 1.590, 3.618, 0.620, 0.009, 0.627, 0.158, 0.998, 0.672, 0.074, 0.081, 1.809, 0.000, 3.932, 3.450, 0.037, 0.002, 0.049, 1.246, 0.194, 4.904, 0.012, 3.787, 1.725, 0.030, 0.000, 0.000, 0.000, 0, 0, 5, 2, 0, 1, 0, 1, 12, 34, 47, 14, 34, 5, 6962, 0, 0, 2, 2, 0, 0, 0, 0, 14, 9, 21, 16, 7, 1, 5130, 1, 1, 15, 3, 0, 1, 0, 0, 4, 253, 268, 28, 11, 4, 1277,
 15:14:06.423,e36fca7b-ac85-42ee-9e80-64b80ac1a132, 2000-00-00 00:00:30.335, 39.30, 0.7822, 0.6201, 0.0371, 0.3843, 0.3638, 0.1846, 0.13, 0.11, 0.05, 0, 0, 0, 1874.6, 1874.6, 19.8, 1.431, 3.241, 0.782, 0.012, 0.790, 0.141, 1.130, 0.520, 0.152, 0.092, 1.620, 0.000, 1.497, 3.413, 0.620, 0.009, 0.627, 0.156, 0.939, 0.619, 0.089, 0.080, 1.706, 0.000, 3.958, 3.749, 0.037, 0.002, 0.049, 1.229, 0.195, 5.220, 0.079, 3.750, 1.874, 0.030, 0.000, 0.000, 0.000, 0, 1, 5, 2, 0, 1, 0, 0, 15, 37, 47, 10, 36, 9, 6243, 0, 0, 4, 2, 1, 0, 0, 1, 3, 23, 28, 13, 6, 3, 4737, 1, 1, 15, 2, 1, 0, 0, 0, 2, 243, 271, 23, 6, 1, 1212,
 15:14:06.667,e36fca7b-ac85-42ee-9e80-64b80ac1a132, 2000-00-00 00:00:30.575, 39.31, 0.7822, 0.6201, 0.0371, 0.3921, 0.3545, 0.1846, 0.13, 0.11, 0.05, 0, 0, 0, 1902.3, 1902.3, 19.8, 1.480, 3.361, 0.782, 0.013, 0.790, 0.147, 1.170, 0.546, 0.099, 0.094, 1.680, 0.000, 1.533, 3.427, 0.620, 0.009, 0.627, 0.159, 0.962, 0.608, 0.056, 0.081, 1.713, 0.000, 3.889, 3.360, 0.037, 0.002, 0.048, 1.222, 0.187, 5.170, 0.077, 3.683, 1.680, 0.029, 0.000, 0.000, 0.000, 0, 0, 5, 2, 0, 1, 0, 0, 14, 28, 38, 17, 44, 4, 5885, 0, 1, 2, 1, 0, 0, 0, 0, 13, 13, 18, 7, 8, 3, 4442, 1, 1, 15, 2, 0, 0, 0, 0, 3, 245, 270, 6, 9, 1, 1133,
 15:14:06.910,e36fca7b-ac85-42ee-9e80-64b80ac1a132, 2000-00-00 00:00:30.820, 39.31, 0.7822, 0.6201, 0.0371, 0.4014, 0.3599, 0.1714, 0.13, 0.11, 0.05, 0, 0, 0, 1874.6, 1874.6, 19.8, 1.454, 3.123, 0.782, 0.014, 0.792, 0.152, 1.152, 0.550, 0.050, 0.099, 1.561, 0.000, 1.528, 3.204, 0.620, 0.010, 0.628, 0.164, 0.960, 0.606, 0.086, 0.085, 1.602, 0.000, 3.705, 3.147, 0.037, 0.002, 0.047, 1.220, 0.176, 4.427, -0.011, 3.633, 1.573, 0.029, 0.000, 0.000, 0.000, 0, 0, 6, 1, 0, 0, 0, 0, 5, 37, 42, 11, 40, 6, 7518, 0, 1, 3, 1, 0, 0, 0, 0, 11, 17, 23, 10, 6, 3, 5481, 1, 1, 14, 3, 0, 0, 0, 0, 1, 227, 261, 13, 4, 1, 1157,
 15:14:07.155,e36fca7b-ac85-42ee-9e80-64b80ac1a132, 2000-00-00 00:00:31.060, 39.28, 0.7822, 0.6201, 0.0371, 0.3926, 0.3511, 0.1665, 0.13, 0.11, 0.05, 0, 0, 0, 1874.6, 1874.6, 19.8, 1.501, 3.066, 0.782, 0.013, 0.791, 0.148, 1.187, 0.537, 0.006, 0.096, 1.533, 0.000, 1.464, 3.305, 0.620, 0.010, 0.628, 0.163, 0.919, 0.642, 0.090, 0.084, 1.652, 0.000, 4.145, 3.605, 0.037, 0.002, 0.047, 1.218, 0.196, 4.938, -0.018, 3.586, 1.802, 0.028, 0.000, 0.000, 0.000, 0, 0, 6, 3, 0, 1, 0, 0, 7, 41, 55, 21, 42, 8, 6810, 0, 0, 2, 3, 0, 0, 1, 1, 16, 8, 23, 19, 8, 3, 5015, 0, 1, 15, 2, 0, 0, 0, 0, 6, 253, 263, 22, 7, 1, 1110,
 15:14:07.399,e36fca7b-ac85-42ee-9e80-64b80ac1a132, 2000-00-00 00:00:31.300, 39.29, 0.7822, 0.6201, 0.0371, 0.4087, 0.3706, 0.1709, 0.13, 0.11, 0.05, 0, 0, 0, 1870.6, 1870.6, 19.8, 1.492, 3.147, 0.782, 0.012, 0.790, 0.142, 1.179, 0.536, 0.065, 0.093, 1.573, 0.000, 1.515, 3.327, 0.620, 0.009, 0.627, 0.158, 0.951, 0.674, 0.112, 0.081, 1.663, 0.000, 3.970, 3.486, 0.037, 0.002, 0.047, 1.222, 0.187, 5.088, 0.074, 3.586, 1.743, 0.028, 0.000, 0.000, 0.000, 0, 0, 5, 2, 0, 1, 0, 0, 9, 30, 39, 8, 43, 7, 7349, 0, 1, 4, 1, 0, 0, 0, 0, 3, 22, 27, 9, 4, 2, 5977, 1, 1, 15, 2, 1, 0, 0, 0, 3, 244, 275, 30, 5, 2, 1092,
 15:14:07.643,e36fca7b-ac85-42ee-9e80-64b80ac1a132, 2000-00-00 00:00:31.545, 39.25, 0.7822, 0.6201, 0.0371, 0.4248, 0.3911, 0.1704, 0.13, 0.11, 0.05, 0, 0, 0, 1874.6, 1910.3, 19.8, 1.558, 3.407, 0.782, 0.013, 0.791, 0.148, 1.233, 0.579, 0.011, 0.097, 1.703, 0.000, 1.632, 3.565, 0.620, 0.010, 0.628, 0.166, 1.026, 0.717, 0.003, 0.084, 1.782, 0.000, 3.899, 3.531, 0.037, 0.002, 0.047, 1.225, 0.186, 5.073, 0.129, 3.636, 1.765, 0.029, 0.000, 0.000, 0.000, 1, 0, 5, 2, 0, 1, 0, 0, 9, 35, 51, 12, 42, 4, 6734, 0, 0, 3, 2, 2, 0, 0, 0, 3, 14, 29, 21, 7, 5, 5116, 1, 0, 15, 2, 0, 0, 0, 0, 3, 251, 271, 7, 9, 2, 1126,
 15:14:07.886,e36fca7b-ac85-42ee-9e80-64b80ac1a132, 2000-00-00 00:00:31.785, 39.25, 0.7822, 0.6201, 0.0371, 0.4185, 0.3901, 0.1689, 0.13, 0.12, 0.05, 0, 0, 0, 1902.3, 1902.3, 19.8, 1.487, 3.227, 0.782, 0.014, 0.791, 0.152, 1.177, 0.544, 0.054, 0.097, 1.613, 0.000, 1.573, 3.309, 0.620, 0.011, 0.628, 0.169, 0.989, 0.662, 0.019, 0.086, 1.654, 0.000, 3.721, 3.343, 0.037, 0.002, 0.047, 1.217, 0.177, 4.734, 0.043, 3.620, 1.671, 0.029, 0.000, 0.000, 0.000, 0, 0, 5, 2, 1, 1, 0, 0, 0, 34, 39, 16, 34, 9, 6320, 0, 0, 3, 1, 1, 0, 0, 1, 6, 11, 16, 11, 11, 4, 5240, 1, 0, 14, 2, 1, 0, 0, 0, 1, 230, 275, 11, 7, 0, 1090,
 15:14:08.129,e36fca7b-ac85-42ee-9e80-64b80ac1a132, 2000-00-00 00:00:32.025, 39.26, 0.7822, 0.6201, 0.0371, 0.3975, 0.3716, 0.1782, 0.13, 0.12, 0.05, 0, 0, 0, 1882.5, 1882.5, 19.8, 1.481, 2.964, 0.782, 0.013, 0.791, 0.149, 1.173, 0.515, 0.005, 0.097, 1.482, 0.000, 1.518, 3.133, 0.620, 0.010, 0.628, 0.164, 0.955, 0.596, 0.104, 0.084, 1.566, 0.000, 4.137, 3.370, 0.037, 0.002, 0.046, 1.219, 0.194, 5.083, 0.117, 3.590, 1.685, 0.028, 0.000, 0.000, 0.000, 0, 0, 5, 2, 0, 1, 0, 0, 5, 39, 45, 13, 25, 8, 7966, 0, 0, 4, 2, 0, 0, 0, 1, 0, 20, 30, 16, 5, 4, 5921, 0, 1, 15, 2, 0, 0, 0, 0, 7, 249, 265, 20, 12, 3, 1137,
 15:14:08.371,e36fca7b-ac85-42ee-9e80-64b80ac1a132, 2000-00-00 00:00:32.265, 39.27, 0.7822, 0.6201, 0.0371, 0.3804, 0.3633, 0.1772, 0.13, 0.11, 0.05, 0, 0, 0, 1874.6, 1910.3, 19.8, 1.453, 2.962, 0.782, 0.013, 0.791, 0.145, 1.150, 0.473, 0.023, 0.094, 1.481, 0.000, 1.525, 3.168, 0.620, 0.009, 0.627, 0.157, 0.958, 0.646, 0.135, 0.079, 1.584, 0.000, 3.864, 3.485, 0.037, 0.002, 0.048, 1.227, 0.188, 4.625, 0.104, 3.736, 1.742, 0.030, 0.000, 0.000, 0.000, 1, 1, 5, 2, 0, 0, 0, 1, 2, 32, 44, 8, 23, 3, 7046, 0, 0, 3, 1, 0, 0, 0, 0, 1, 15, 18, 13, 6, 4, 5302, 1, 0, 15, 2, 1, 0, 0, 0, 1, 242, 269, 38, 11, 4, 1100,
 15:14:08.615,e36fca7b-ac85-42ee-9e80-64b80ac1a132, 2000-00-00 00:00:32.505, 39.28, 0.7822, 0.6201, 0.0371, 0.3691, 0.3623, 0.1836, 0.13, 0.11, 0.05, 0, 0, 0, 1874.6, 1874.6, 19.8, 1.474, 3.278, 0.782, 0.013, 0.790, 0.146, 1.166, 0.491, -0.016, 0.095, 1.639, 0.000, 1.559, 3.512, 0.620, 0.009, 0.628, 0.159, 0.979, 0.602, 0.136, 0.082, 1.756, 0.000, 4.080, 3.396, 0.037, 0.002, 0.048, 1.226, 0.197, 5.114, 0.103, 3.715, 1.698, 0.029, 0.000, 0.000, 0.000, 1, 0, 5, 3, 0, 1, 0, 0, 4, 32, 51, 15, 25, 10, 7167, 0, 0, 4, 1, 1, 0, 0, 0, 1, 21, 26, 10, 6, 4, 5272, 1, 1, 15, 2, 0, 1, 0, 0, 2, 240, 264, 11, 15, 4, 1235,
 15:14:08.859,e36fca7b-ac85-42ee-9e80-64b80ac1a132, 2000-00-00 00:00:32.750, 39.29, 0.7822, 0.6201, 0.0371, 0.3906, 0.3809, 0.1812, 0.13, 0.11, 0.05, 0, 0, 0, 1874.6, 1874.6, 19.8, 1.484, 3.273, 0.782, 0.012, 0.791, 0.144, 1.174, 0.549, 0.000, 0.094, 1.636, 0.000, 1.615, 3.451, 0.620, 0.009, 0.628, 0.159, 1.015, 0.649, 0.040, 0.082, 1.725, 0.000, 3.906, 3.443, 0.037, 0.002, 0.048, 1.227, 0.189, 5.120, 0.148, 3.716, 1.721, 0.029, 0.000, 0.000, 0.000, 0, 0, 5, 1, 0, 1, 0, 0, 1, 37, 44, 11, 17, 4, 7172, 0, 0, 3, 1, 0, 0, 0, 0, 0, 18, 24, 7, 4, 2, 5348, 2, 0, 14, 2, 0, 0, 0, 0, 1, 229, 267, 11, 21, 2, 1161,
 15:14:09.102,e36fca7b-ac85-42ee-9e80-64b80ac1a132, 2000-00-00 00:00:32.990, 39.29, 0.7822, 0.6201, 0.0371, 0.4009, 0.3726, 0.1719, 0.13, 0.11, 0.05, 0, 0, 0, 1874.6, 1882.5, 19.8, 1.484, 3.081, 0.782, 0.012, 0.790, 0.145, 1.173, 0.510, -0.021, 0.094, 1.540, 0.000, 1.502, 3.259, 0.620, 0.009, 0.627, 0.158, 0.943, 0.580, 0.034, 0.081, 1.629, 0.000, 3.701, 3.270, 0.037, 0.002, 0.048, 1.222, 0.181, 4.601, 0.030, 3.753, 1.635, 0.030, 0.000, 0.000, 0.000, 0, 0, 6, 3, 0, 1, 0, 0, 46, 50, 58, 17, 8, 11, 7170, 1, 0, 2, 2, 0, 0, 0, 0, 36, 10, 21, 9, 5, 3, 5568, 1, 1, 15, 2, 0, 0, 0, 0, 2, 241, 265, 17, 17, 5, 1175,
 15:14:09.346,e36fca7b-ac85-42ee-9e80-64b80ac1a132, 2000-00-00 00:00:33.230, 39.29, 0.7822, 0.6201, 0.0371, 0.3994, 0.3599, 0.1699, 0.13, 0.11, 0.05, 0, 0, 0, 1870.6, 1870.6, 19.8, 1.460, 3.218, 0.782, 0.012, 0.790, 0.144, 1.154, 0.557, 0.098, 0.094, 1.609, 0.000, 1.559, 3.406, 0.620, 0.009, 0.627, 0.157, 0.979, 0.593, -0.004, 0.081, 1.703, 0.000, 3.779, 3.308, 0.037, 0.002, 0.048, 1.231, 0.184, 4.733, 0.006, 3.759, 1.654, 0.030, 0.000, 0.000, 0.000, 1, 0, 5, 1, 0, 0, 0, 0, 54, 31, 42, 8, 7, 4, 7435, 0, 0, 4, 1, 0, 1, 0, 0, 20, 19, 20, 8, 6, 4, 5391, 1, 0, 15, 2, 1, 1, 0, 0, 1, 245, 267, 36, 19, 6, 1207,
 15:14:09.588,e36fca7b-ac85-42ee-9e80-64b80ac1a132, 2000-00-00 00:00:33.470, 39.30, 0.7822, 0.6201, 0.0371, 0.4497, 0.3809, 0.1733, 0.14, 0.12, 0.05, 0, 0, 0, 1874.6, 1874.6, 19.8, 1.491, 3.136, 0.782, 0.014, 0.791, 0.155, 1.180, 0.574, 0.013, 0.101, 1.568, 0.000, 1.617, 3.358, 0.620, 0.010, 0.628, 0.168, 1.016, 0.641, 0.031, 0.087, 1.679, 0.000, 3.728, 3.378, 0.037, 0.002, 0.050, 1.225, 0.187, 4.500, 0.033, 3.838, 1.689, 0.030, 0.000, 0.000, 0.000, 0, 0, 6, 2, 0, 0, 0, 0, 7, 42, 52, 15, 2, 5, 7497, 0, 0, 3, 1, 0, 0, 0, 0, 6, 16, 24, 10, 5, 3, 5664, 1, 1, 14, 2, 1, 0, 0, 0, 4, 237, 264, 19, 25, 2, 1137,
 15:14:09.832,e36fca7b-ac85-42ee-9e80-64b80ac1a132, 2000-00-00 00:00:33.710, 39.24, 0.7822, 0.6201, 0.0371, 0.4121, 0.3623, 0.1772, 0.13, 0.12, 0.05, 0, 0, 0, 1874.6, 1874.6, 19.8, 1.516, 3.082, 0.782, 0.014, 0.791, 0.154, 1.199, 0.556, -0.001, 0.100, 1.541, 0.000, 1.578, 3.215, 0.620, 0.010, 0.628, 0.168, 0.992, 0.601, 0.019, 0.086, 1.607, 0.000, 3.911, 3.352, 0.037, 0.002, 0.048, 1.238, 0.188, 4.829, -0.029, 3.699, 1.676, 0.029, 0.000, 0.000, 0.000, 0, 0, 5, 1, 0, 0, 0, 0, 1, 38, 45, 10, 4, 3, 7674, 1, 0, 3, 1, 0, 0, 0, 1, 2, 12, 22, 9, 3, 4, 5599, 1, 0, 15, 2, 0, 0, 0, 1, 2, 232, 266, 5, 21, 1, 1231,
 15:14:10.076,e36fca7b-ac85-42ee-9e80-64b80ac1a132, 2000-00-00 00:00:33.955, 39.26, 0.7822, 0.6201, 0.0371, 0.4175, 0.3667, 0.1738, 0.13, 0.12, 0.05, 0, 0, 0, 1878.6, 1878.6, 19.8, 1.554, 3.130, 0.782, 0.013, 0.791, 0.150, 1.230, 0.591, 0.040, 0.097, 1.565, 0.000, 1.539, 3.327, 0.620, 0.010, 0.628, 0.163, 0.967, 0.652, 0.039, 0.084, 1.663, 0.000, 4.015, 3.502, 0.037, 0.002, 0.049, 1.230, 0.196, 5.262, -0.014, 3.728, 1.751, 0.029, 0.000, 0.000, 0.000, 0, 1, 6, 2, 0, 0, 0, 0, 4, 43, 48, 12, 7, 4, 7203, 1, 0, 3, 2, 0, 0, 0, 1, 5, 11, 21, 9, 6, 4, 5248, 2, 1, 15, 3, 0, 0, 0, 0, 3, 240, 270, 18, 21, 4, 1179,
 15:14:10.319,e36fca7b-ac85-42ee-9e80-64b80ac1a132, 2000-00-00 00:00:34.195, 39.27, 0.7822, 0.6201, 0.0371, 0.4126, 0.3540, 0.1753, 0.13, 0.11, 0.05, 0, 0, 0, 1874.6, 1910.3, 19.8, 1.474, 3.113, 0.782, 0.013, 0.790, 0.147, 1.166, 0.541, 0.011, 0.095, 1.556, 0.000, 1.465, 3.234, 0.620, 0.009, 0.627, 0.159, 0.920, 0.592, 0.087, 0.080, 1.617, 0.000, 3.860, 3.399, 0.037, 0.002, 0.048, 1.226, 0.187, 4.802, 0.041, 3.679, 1.699, 0.029, 0.000, 0.000, 0.000, 0, 0, 6, 2, 0, 0, 0, 0, 14, 42, 48, 13, 8, 3, 6966, 0, 1, 3, 1, 0, 0, 0, 1, 16, 17, 21, 8, 6, 3, 5329, 1, 1, 15, 2, 0, 1, 0, 0, 4, 244, 260, 33, 18, 4, 1123,
 15:14:10.561,e36fca7b-ac85-42ee-9e80-64b80ac1a132, 2000-00-00 00:00:34.435, 39.29, 0.7822, 0.6201, 0.0371, 0.3828, 0.3291, 0.1719, 0.13, 0.11, 0.05, 0, 0, 0, 1870.6, 1870.6, 19.8, 1.433, 2.947, 0.782, 0.012, 0.790, 0.141, 1.132, 0.490, 0.037, 0.091, 1.473, 0.000, 1.461, 3.043, 0.620, 0.009, 0.627, 0.154, 0.916, 0.550, 0.011, 0.078, 1.521, 0.000, 3.917, 3.389, 0.037, 0.002, 0.047, 1.221, 0.185, 4.687, 0.145, 3.598, 1.694, 0.028, 0.000, 0.000, 0.000, 0, 0, 5, 1, 0, 1, 0, 0, 22, 30, 37, 9, 12, 11, 6533, 0, 1, 3, 2, 2, 0, 0, 0, 19, 21, 26, 18, 9, 3, 4641, 1, 0, 15, 2, 1, 0, 0, 0, 3, 245, 271, 17, 13, 2, 1094,
 15:14:10.804,e36fca7b-ac85-42ee-9e80-64b80ac1a132, 2000-00-00 00:00:34.675, 39.29, 0.7822, 0.6201, 0.0371, 0.3701, 0.3423, 0.1733, 0.13, 0.11, 0.05, 0, 0, 0, 1874.6, 1910.3, 19.8, 1.451, 3.067, 0.782, 0.012, 0.791, 0.143, 1.148, 0.475, -0.019, 0.093, 1.533, 0.000, 1.488, 3.443, 0.620, 0.009, 0.627, 0.157, 0.934, 0.625, 0.114, 0.079, 1.721, 0.000, 4.285, 3.646, 0.037, 0.002, 0.047, 1.230, 0.202, 5.144, 0.006, 3.578, 1.823, 0.028, 0.000, 0.000, 0.000, 0, 0, 5, 2, 1, 0, 0, 0, 5, 32, 39, 12, 18, 2, 6552, 0, 0, 3, 1, 0, 0, 0, 0, 9, 18, 25, 9, 4, 6, 5115, 0, 1, 14, 1, 0, 0, 0, 0, 3, 232, 256, 5, 21, 1, 1062,
 15:14:11.048,e36fca7b-ac85-42ee-9e80-64b80ac1a132, 2000-00-00 00:00:34.915, 39.30, 0.7822, 0.6201, 0.0371, 0.3501, 0.3311, 0.1719, 0.12, 0.11, 0.05, 0, 0, 0, 1874.6, 1874.6, 19.8, 1.392, 3.040, 0.782, 0.011, 0.789, 0.136, 1.099, 0.467, 0.084, 0.089, 1.520, 0.000, 1.445, 3.280, 0.620, 0.008, 0.627, 0.151, 0.906, 0.559, 0.088, 0.076, 1.640, 0.000, 4.123, 3.522, 0.037, 0.001, 0.045, 1.219, 0.189, 4.908, -0.019, 3.470, 1.761, 0.027, 0.000, 0.000, 0.000, 0, 0, 5, 1, 0, 0, 0, 0, 3, 39, 42, 11, 21, 5, 6112, 1, 1, 2, 1, 0, 0, 0, 0, 18, 10, 17, 4, 8, 2, 4520, 1, 0, 14, 2, 1, 0, 0, 0, 1, 226, 269, 10, 14, 2, 992,
 15:14:11.292,e36fca7b-ac85-42ee-9e80-64b80ac1a132, 2000-00-00 00:00:35.160, 39.28, 0.7822, 0.6201, 0.0371, 0.3438, 0.3179, 0.1836, 0.12, 0.10, 0.05, 0, 0, 0, 1874.6, 1874.6, 19.8, 1.428, 3.118, 0.782, 0.010, 0.789, 0.128, 1.128, 0.450, 0.050, 0.084, 1.559, 0.000, 1.455, 3.222, 0.620, 0.007, 0.626, 0.141, 0.911, 0.542, 0.063, 0.072, 1.611, 0.000, 4.599, 3.818, 0.037, 0.001, 0.044, 1.233, 0.204, 5.710, 0.098, 3.381, 1.909, 0.027, 0.000, 0.000, 0.000, 0, 0, 6, 2, 1, 1, 0, 0, 16, 41, 51, 17, 19, 9, 5292, 0, 1, 4, 1, 0, 0, 0, 0, 2, 20, 23, 8, 5, 4, 4152, 1, 1, 15, 3, 0, 1, 0, 0, 8, 254, 268, 27, 9, 2, 1013,
 15:14:11.536,e36fca7b-ac85-42ee-9e80-64b80ac1a132, 2000-00-00 00:00:35.400, 39.28, 0.7822, 0.6201, 0.0371, 0.3594, 0.3276, 0.1709, 0.12, 0.10, 0.05, 0, 0, 0, 1874.6, 1874.6, 19.8, 1.474, 3.308, 0.782, 0.011, 0.790, 0.136, 1.165, 0.498, 0.059, 0.089, 1.654, 0.000, 1.550, 3.424, 0.620, 0.008, 0.626, 0.148, 0.971, 0.585, -0.007, 0.076, 1.712, 0.000, 3.721, 3.495, 0.037, 0.001, 0.044, 1.208, 0.165, 4.812, 0.180, 3.371, 1.747, 0.027, 0.000, 0.000, 0.000, 0, 0, 5, 2, 1, 1, 0, 0, 2, 34, 44, 11, 31, 6, 6482, 0, 1, 3, 1, 1, 1, 0, 0, 4, 24, 20, 11, 14, 5, 4617, 1, 1, 15, 2, 1, 0, 0, 0, 2, 244, 266, 27, 11, 1, 972,
 15:14:11.781,e36fca7b-ac85-42ee-9e80-64b80ac1a132, 2000-00-00 00:00:35.645, 39.29, 0.7822, 0.6201, 0.0371, 0.3809, 0.3481, 0.1704, 0.12, 0.11, 0.05, 0, 0, 0, 1874.6, 1874.6, 19.8, 1.444, 3.036, 0.782, 0.011, 0.789, 0.139, 1.140, 0.475, 0.071, 0.090, 1.518, 0.000, 1.557, 3.408, 0.620, 0.008, 0.627, 0.151, 0.977, 0.624, 0.021, 0.078, 1.704, 0.000, 4.291, 3.430, 0.037, 0.001, 0.044, 1.229, 0.192, 5.202, 0.007, 3.431, 1.715, 0.027, 0.000, 0.000, 0.000, 0, 0, 5, 2, 0, 1, 0, 0, 8, 34, 43, 7, 28, 5, 6355, 1, 0, 4, 1, 1, 0, 0, 0, 8, 21, 30, 16, 8, 4, 4574, 1, 1, 15, 2, 1, 0, 0, 0, 2, 244, 266, 27, 11, 1, 972,
 15:14:12.024,e36fca7b-ac85-42ee-9e80-64b80ac1a132, 2000-00-00 00:00:35.890, 39.31, 0.7822, 0.6201, 0.0371, 0.3794, 0.3501, 0.1694, 0.12, 0.11, 0.05, 0, 0, 0, 1874.6, 1874.6, 19.8, 1.470, 3.111, 0.782, 0.012, 0.790, 0.140, 1.163, 0.493, 0.073, 0.091, 1.555, 0.000, 1.519, 3.395, 0.620, 0.009, 0.627, 0.153, 0.953, 0.594, 0.078, 0.079, 1.697, 0.000, 4.121, 3.413, 0.037, 0.001, 0.044, 1.232, 0.184, 5.036, -0.074, 3.407, 1.706, 0.027, 0.000, 0.000, 0.000, 0, 0, 5, 2, 0, 1, 0, 0, 8, 34, 43, 7, 28, 5, 6355, 1, 0, 4, 1, 1, 0, 0, 0, 8, 21, 30, 16, 8, 4, 4574, 1, 1, 15, 2, 0, 0, 0, 0, 4, 241, 262, 7, 8, 1, 941,
 15:14:12.269,e36fca7b-ac85-42ee-9e80-64b80ac1a132, 2000-00-00 00:00:36.130, 39.35, 0.7822, 0.6201, 0.0371, 0.3804, 0.3472, 0.1689, 0.12, 0.10, 0.05, 0, 0, 0, 1874.6, 1874.6, 19.8, 1.484, 3.331, 0.782, 0.011, 0.789, 0.135, 1.171, 0.517, 0.044, 0.088, 1.665, 0.000, 1.474, 3.314, 0.620, 0.008, 0.626, 0.148, 0.924, 0.623, 0.079, 0.076, 1.657, 0.000, 4.171, 3.606, 0.037, 0.001, 0.043, 1.237, 0.179, 5.206, -0.023, 3.288, 1.803, 0.026, 0.000, 0.000, 0.000, 0, 0, 5, 3, 0, 1, 0, 0, 5, 32, 48, 16, 35, 6, 6168, 0, 0, 3, 2, 0, 0, 0, 0, 7, 16, 24, 18, 11, 2, 4614, 1, 0, 14, 2, 0, 0, 0, 0, 1, 224, 265, 10, 6, 1, 1006,
 15:14:12.513,e36fca7b-ac85-42ee-9e80-64b80ac1a132, 2000-00-00 00:00:36.370, 39.28, 0.7822, 0.6201, 0.0366, 0.3691, 0.3398, 0.1655, 0.12, 0.10, 0.04, 0, 0, 0, 1902.3, 1902.3, 19.8, 1.479, 3.239, 0.782, 0.010, 0.789, 0.132, 1.168, 0.503, -0.001, 0.085, 1.619, 0.000, 1.441, 3.284, 0.620, 0.008, 0.626, 0.146, 0.904, 0.596, 0.035, 0.074, 1.642, 0.000, 4.196, 3.450, 0.037, 0.001, 0.043, 1.227, 0.184, 5.265, -0.034, 3.359, 1.725, 0.026, 0.000, 0.000, 0.000, 0, 0, 6, 2, 0, 1, 0, 0, 6, 44, 47, 9, 36, 12, 5567, 0, 1, 3, 1, 1, 0, 0, 0, 4, 14, 15, 8, 5, 1, 4170, 1, 1, 15, 2, 0, 0, 0, 0, 6, 259, 278, 19, 11, 1, 935,
 15:14:12.755,e36fca7b-ac85-42ee-9e80-64b80ac1a132, 2000-00-00 00:00:36.615, 39.29, 0.7822, 0.6201, 0.0366, 0.3706, 0.3457, 0.1768, 0.12, 0.11, 0.05, 0, 0, 0, 1874.6, 2001.4, 19.8, 1.421, 2.926, 0.782, 0.012, 0.789, 0.141, 1.123, 0.471, 0.093, 0.091, 1.463, 0.000, 1.533, 3.124, 0.620, 0.008, 0.626, 0.151, 0.961, 0.568, 0.014, 0.073, 1.562, 0.000, 3.936, 3.548, 0.037, 0.001, 0.046, 1.218, 0.181, 5.098, 0.092, 3.512, 1.774, 0.028, 0.000, 0.000, 0.000, 0, 0, 5, 2, 0, 1, 0, 0, 14, 36, 49, 8, 41, 6, 5414, 0, 0, 3, 2, 0, 0, 0, 0, 32, 13, 19, 12, 10, 2, 4198, 1, 0, 14, 2, 1, 0, 0, 0, 1, 232, 256, 33, 6, 3, 998,
 15:14:13.000,e36fca7b-ac85-42ee-9e80-64b80ac1a132, 2000-00-00 00:00:36.855, 39.28, 0.7822, 0.6201, 0.0366, 0.3579, 0.3398, 0.1729, 0.13, 0.11, 0.05, 0, 0, 0, 1874.6, 1874.6, 19.8, 1.407, 2.830, 0.782, 0.013, 0.790, 0.147, 1.112, 0.473, 0.023, 0.095, 1.415, 0.000, 1.490, 3.098, 0.620, 0.009, 0.627, 0.156, 0.935, 0.565, 0.002, 0.080, 1.549, 0.000, 3.895, 3.357, 0.037, 0.002, 0.046, 1.229, 0.179, 4.898, -0.040, 3.522, 1.678, 0.028, 0.000, 0.000, 0.000, 0, 0, 6, 1, 0, 2, 1, 0, 14, 45, 48, 6, 37, 12, 7008, 1, 0, 3, 0, 0, 1, 0, 1, 25, 16, 21, 5, 5, 2, 5112, 1, 1, 15, 2, 0, 0, 0, 0, 4, 243, 262, 11, 5, 2, 1050,
 15:14:13.243,e36fca7b-ac85-42ee-9e80-64b80ac1a132, 2000-00-00 00:00:37.095, 39.36, 0.7822, 0.6201, 0.0366, 0.3701, 0.3271, 0.1675, 0.13, 0.11, 0.05, 0, 0, 0, 1874.6, 1874.6, 19.8, 1.439, 3.161, 0.782, 0.011, 0.789, 0.139, 1.137, 0.496, 0.051, 0.090, 1.580, 0.000, 1.468, 3.375, 0.620, 0.008, 0.627, 0.150, 0.920, 0.555, 0.090, 0.077, 1.687, 0.000, 3.820, 3.369, 0.037, 0.001, 0.044, 1.233, 0.169, 4.950, 0.042, 3.404, 1.684, 0.027, 0.000, 0.000, 0.000, 0, 0, 5, 2, 0, 1, 0, 0, 9, 36, 46, 17, 44, 9, 7055, 0, 0, 3, 1, 0, 0, 0, 1, 4, 16, 22, 10, 6, 5, 5154, 1, 0, 14, 2, 0, 0, 0, 0, 1, 232, 264, 10, 8, 3, 1086,
 15:14:13.488,e36fca7b-ac85-42ee-9e80-64b80ac1a132, 2000-00-00 00:00:37.335, 39.34, 0.7822, 0.6201, 0.0366, 0.3613, 0.3296, 0.1670, 0.12, 0.10, 0.05, 0, 0, 0, 1874.6, 1874.6, 19.8, 1.430, 3.229, 0.782, 0.010, 0.789, 0.131, 1.128, 0.462, 0.043, 0.085, 1.614, 0.000, 1.453, 3.367, 0.620, 0.007, 0.626, 0.143, 0.910, 0.550, 0.138, 0.074, 1.683, 0.000, 3.738, 3.420, 0.036, 0.001, 0.044, 1.213, 0.166, 4.909, 0.100, 3.366, 1.710, 0.027, 0.000, 0.000, 0.000, 1, 0, 6, 2, 0, 1, 0, 0, 3, 42, 52, 15, 42, 8, 5581, 1, 1, 2, 2, 0, 0, 0, 0, 6, 11, 18, 13, 5, 5, 4223, 1, 1, 15, 2, 0, 0, 0, 0, 3, 250, 276, 17, 12, 1, 941,
 15:14:13.735,e36fca7b-ac85-42ee-9e80-64b80ac1a132, 2000-00-00 00:00:37.580, 39.32, 0.7822, 0.6201, 0.0366, 0.3506, 0.3154, 0.1680, 0.12, 0.10, 0.05, 0, 0, 0, 1874.6, 1874.6, 19.8, 1.440, 2.995, 0.782, 0.011, 0.789, 0.134, 1.136, 0.458, -0.032, 0.087, 1.497, 0.000, 1.412, 3.159, 0.620, 0.008, 0.626, 0.146, 0.884, 0.566, 0.173, 0.075, 1.579, 0.000, 4.013, 3.455, 0.036, 0.001, 0.044, 1.215, 0.178, 5.129, 0.154, 3.387, 1.727, 0.027, 0.000, 0.000, 0.000, 1, 0, 5, 1, 1, 1, 0, 0, 1, 28, 39, 12, 33, 11, 5485, 0, 0, 4, 1, 0, 0, 0, 0, 1, 23, 31, 12, 3, 3, 4056, 0, 1, 15, 1, 1, 0, 0, 0, 1, 242, 260, 34, 14, 1, 955,
 15:14:13.979,e36fca7b-ac85-42ee-9e80-64b80ac1a132, 2000-00-00 00:00:37.825, 39.32, 0.7822, 0.6201, 0.0366, 0.3472, 0.3350, 0.1665, 0.12, 0.10, 0.05, 0, 0, 0, 1874.6, 1874.6, 19.8, 1.443, 3.040, 0.782, 0.013, 0.791, 0.147, 1.142, 0.478, 0.010, 0.095, 1.520, 0.000, 1.502, 3.328, 0.620, 0.009, 0.627, 0.158, 0.943, 0.615, 0.032, 0.081, 1.664, 0.000, 3.881, 3.221, 0.036, 0.002, 0.046, 1.208, 0.180, 4.843, 0.057, 3.520, 1.610, 0.028, 0.000, 0.000, 0.000, 0, 0, 6, 2, 0, 0, 0, 0, 2, 38, 50, 9, 27, 4, 6081, 0, 0, 4, 2, 0, 0, 0, 0, 3, 18, 24, 12, 4, 2, 4431, 1, 1, 14, 2, 1, 0, 0, 0, 5, 238, 258, 14, 13, 1, 1010,
 15:14:14.223,e36fca7b-ac85-42ee-9e80-64b80ac1a132, 2000-00-00 00:00:38.065, 39.31, 0.7822, 0.6201, 0.0366, 0.3818, 0.3477, 0.1777, 0.13, 0.11, 0.05, 0, 0, 0, 1874.6, 1910.3, 19.8, 1.486, 3.234, 0.782, 0.013, 0.790, 0.146, 1.175, 0.538, 0.029, 0.095, 1.617, 0.000, 1.536, 3.506, 0.620, 0.009, 0.627, 0.159, 0.964, 0.602, 0.081, 0.080, 1.753, 0.000, 4.100, 3.742, 0.036, 0.002, 0.046, 1.219, 0.191, 5.056, 0.083, 3.524, 1.871, 0.028, 0.000, 0.000, 0.000, 0, 0, 5, 1, 0, 1, 0, 0, 5, 39, 41, 9, 17, 7, 7252, 0, 0, 3, 1, 0, 1, 0, 1, 10, 13, 19, 9, 5, 7, 5586, 1, 0, 15, 2, 0, 0, 0, 0, 2, 236, 267, 5, 14, 1, 1106,
 15:14:14.466,e36fca7b-ac85-42ee-9e80-64b80ac1a132, 2000-00-00 00:00:38.310, 39.31, 0.7822, 0.6201, 0.0366, 0.3633, 0.3511, 0.1699, 0.13, 0.11, 0.05, 0, 0, 0, 1874.6, 1874.6, 19.8, 1.442, 2.892, 0.782, 0.013, 0.791, 0.145, 1.141, 0.471, -0.046, 0.094, 1.446, 0.000, 1.523, 3.167, 0.620, 0.009, 0.627, 0.157, 0.956, 0.604, 0.085, 0.081, 1.583, 0.000, 3.772, 3.415, 0.036, 0.001, 0.045, 1.227, 0.173, 4.764, 0.057, 3.499, 1.707, 0.028, 0.000, 0.000, 0.000, 0, 0, 5, 3, 0, 0, 0, 0, 4, 36, 48, 24, 20, 4, 6963, 1, 0, 3, 2, 0, 0, 0, 1, 4, 14, 24, 15, 5, 3, 4829, 1, 0, 15, 3, 0, 1, 0, 0, 1, 242, 280, 18, 18, 2, 1087,
 15:14:14.709,e36fca7b-ac85-42ee-9e80-64b80ac1a132, 2000-00-00 00:00:38.550, 39.31, 0.7822, 0.6201, 0.0366, 0.3828, 0.3496, 0.1748, 0.12, 0.11, 0.05, 0, 0, 0, 1870.6, 1870.6, 19.8, 1.510, 3.399, 0.782, 0.011, 0.790, 0.137, 1.194, 0.528, 0.045, 0.089, 1.699, 0.000, 1.559, 3.610, 0.620, 0.008, 0.627, 0.150, 0.977, 0.614, 0.078, 0.077, 1.805, 0.000, 3.939, 3.632, 0.036, 0.002, 0.046, 1.220, 0.183, 5.098, 0.189, 3.534, 1.816, 0.028, 0.000, 0.000, 0.000, 1, 0, 5, 2, 0, 0, 0, 0, 8, 33, 45, 12, 19, 4, 6631, 0, 0, 3, 1, 0, 0, 0, 0, 16, 10, 15, 11, 7, 3, 5123, 1, 1, 15, 2, 0, 0, 0, 0, 4, 249, 274, 30, 19, 3, 1064,
 15:14:14.951,e36fca7b-ac85-42ee-9e80-64b80ac1a132, 2000-00-00 00:00:38.790, 39.32, 0.7822, 0.6201, 0.0366, 0.3867, 0.3408, 0.1777, 0.13, 0.11, 0.05, 0, 0, 0, 1874.6, 1874.6, 19.8, 1.529, 3.127, 0.782, 0.012, 0.790, 0.143, 1.209, 0.550, -0.012, 0.093, 1.563, 0.000, 1.498, 3.201, 0.620, 0.009, 0.628, 0.156, 0.941, 0.561, 0.064, 0.080, 1.600, 0.000, 3.934, 3.520, 0.036, 0.002, 0.047, 1.239, 0.186, 5.044, 0.130, 3.637, 1.760, 0.029, 0.000, 0.000, 0.000, 0, 0, 5, 2, 0, 0, 0, 0, 2, 35, 45, 11, 10, 4, 6959, 0, 0, 3, 1, 0, 0, 0, 0, 11, 18, 19, 12, 4, 1, 4967, 1, 1, 15, 2, 1, 1, 0, 0, 2, 237, 264, 26, 13, 2, 1171,
 15:14:15.196,e36fca7b-ac85-42ee-9e80-64b80ac1a132, 2000-00-00 00:00:39.030, 39.31, 0.7822, 0.6201, 0.0366, 0.3931, 0.3428, 0.1841, 0.13, 0.11, 0.05, 0, 0, 0, 1902.3, 1902.3, 19.8, 1.465, 3.246, 0.782, 0.012, 0.791, 0.144, 1.159, 0.573, 0.036, 0.092, 1.623, 0.000, 1.554, 3.550, 0.620, 0.009, 0.628, 0.158, 0.976, 0.619, -0.015, 0.080, 1.775, 0.000, 4.189, 3.466, 0.036, 0.002, 0.046, 1.221, 0.194, 5.073, 0.154, 3.524, 1.733, 0.028, 0.000, 0.000, 0.000, 1, 0, 5, 2, 0, 0, 0, 0, 2, 35, 48, 14, 7, 4, 6044, 0, 0, 3, 2, 0, 0, 0, 0, 5, 17, 19, 8, 3, 1, 4760, 1, 1, 14, 1, 0, 1, 0, 0, 3, 236, 257, 5, 16, 3, 1146,
 15:14:15.441,e36fca7b-ac85-42ee-9e80-64b80ac1a132, 2000-00-00 00:00:39.270, 39.36, 0.7822, 0.6201, 0.0366, 0.3926, 0.3667, 0.1807, 0.13, 0.11, 0.05, 0, 0, 0, 1878.6, 1878.6, 19.8, 1.472, 3.176, 0.782, 0.013, 0.791, 0.149, 1.165, 0.554, 0.030, 0.096, 1.588, 0.000, 1.513, 3.379, 0.620, 0.009, 0.627, 0.159, 0.950, 0.647, 0.087, 0.082, 1.689, 0.000, 4.006, 3.447, 0.036, 0.002, 0.047, 1.239, 0.188, 5.140, -0.001, 3.612, 1.723, 0.029, 0.000, 0.000, 0.000, 0, 0, 5, 1, 0, 0, 0, 1, 18, 37, 38, 15, 3, 9, 7588, 0, 0, 3, 2, 0, 1, 0, 0, 23, 12, 19, 7, 10, 5, 5753, 1, 0, 14, 2, 0, 0, 0, 0, 3, 230, 259, 13, 19, 2, 1057,
 15:14:15.684,e36fca7b-ac85-42ee-9e80-64b80ac1a132, 2000-00-00 00:00:39.515, 39.34, 0.7822, 0.6201, 0.0366, 0.4038, 0.3623, 0.1841, 0.13, 0.11, 0.05, 0, 0, 0, 1874.6, 1874.6, 19.8, 1.477, 3.122, 0.782, 0.013, 0.791, 0.150, 1.169, 0.531, 0.047, 0.097, 1.561, 0.000, 1.498, 3.324, 0.620, 0.009, 0.628, 0.160, 0.941, 0.628, 0.032, 0.083, 1.662, 0.000, 4.758, 3.472, 0.036, 0.002, 0.049, 1.235, 0.237, 5.850, -0.084, 3.828, 1.736, 0.030, 0.000, 0.000, 0.000, 0, 0, 5, 3, 0, 0, 0, 0, 14, 35, 50, 29, 6, 5, 7692, 1, 0, 3, 3, 0, 0, 0, 0, 3, 18, 39, 20, 3, 1, 5664, 1, 1, 15, 2, 0, 0, 0, 0, 5, 260, 275, 31, 17, 2, 1242,
 15:14:15.927,e36fca7b-ac85-42ee-9e80-64b80ac1a132, 2000-00-00 00:00:39.755, 39.32, 0.7822, 0.6201, 0.0366, 0.4019, 0.3462, 0.1914, 0.13, 0.11, 0.05, 0, 0, 0, 1910.3, 1910.3, 19.8, 1.484, 3.152, 0.782, 0.012, 0.789, 0.142, 1.172, 0.515, 0.040, 0.090, 1.576, 0.000, 1.501, 3.331, 0.620, 0.008, 0.626, 0.150, 0.941, 0.585, 0.073, 0.076, 1.665, 0.000, 4.228, 3.537, 0.037, 0.002, 0.048, 1.231, 0.207, 5.150, -0.002, 3.730, 1.768, 0.029, 0.000, 0.000, 0.000, 0, 0, 5, 1, 0, 0, 0, 0, 16, 34, 47, 8, 6, 4, 6610, 0, 0, 3, 0, 0, 0, 0, 0, 10, 11, 13, 7, 7, 2, 4459, 1, 0, 14, 2, 1, 0, 0, 0, 2, 235, 265, 26, 21, 2, 1122,
 15:14:16.171,e36fca7b-ac85-42ee-9e80-64b80ac1a132, 2000-00-00 00:00:39.995, 39.32, 0.7822, 0.6201, 0.0366, 0.3931, 0.3467, 0.1787, 0.13, 0.11, 0.05, 0, 0, 0, 1874.6, 1874.6, 19.8, 1.501, 3.061, 0.782, 0.013, 0.790, 0.148, 1.187, 0.549, 0.035, 0.096, 1.530, 0.000, 1.555, 3.287, 0.620, 0.009, 0.627, 0.158, 0.976, 0.612, 0.005, 0.081, 1.643, 0.000, 3.928, 3.505, 0.037, 0.002, 0.048, 1.235, 0.188, 5.027, 0.044, 3.690, 1.752, 0.029, 0.000, 0.000, 0.000, 0, 0, 6, 2, 0, 1, 0, 0, 23, 41, 49, 9, 7, 5, 7034, 0, 0, 3, 2, 1, 0, 0, 0, 5, 10, 18, 16, 6, 3, 5063, 0, 1, 15, 2, 1, 0, 0, 0, 5, 239, 257, 8, 17, 1, 1102,
 15:14:16.416,e36fca7b-ac85-42ee-9e80-64b80ac1a132, 2000-00-00 00:00:40.240, 39.31, 0.7822, 0.6201, 0.0366, 0.3765, 0.3281, 0.1748, 0.12, 0.11, 0.05, 0, 0, 0, 1902.3, 1902.3, 19.8, 1.490, 2.811, 0.782, 0.015, 0.792, 0.159, 1.181, 0.513, 0.016, 0.102, 1.405, 0.000, 1.503, 2.924, 0.620, 0.011, 0.629, 0.171, 0.946, 0.559, 0.039, 0.087, 1.462, 0.000, 3.569, 3.475, 0.037, 0.002, 0.047, 1.215, 0.169, 4.705, 0.114, 3.587, 1.737, 0.028, 0.000, 0.000, 0.000, 0, 0, 5, 1, 0, 1, 0, 0, 6, 32, 42, 11, 9, 3, 6138, 0, 0, 3, 1, 1, 0, 0, 0, 1, 19, 21, 10, 11, 2, 4587, 2, 0, 14, 2, 1, 1, 0, 0, 1, 213, 249, 10, 17, 2, 1012,
 15:14:16.659,e36fca7b-ac85-42ee-9e80-64b80ac1a132, 2000-00-00 00:00:40.480, 39.32, 0.7822, 0.6201, 0.0366, 0.3936, 0.3398, 0.1724, 0.13, 0.11, 0.05, 0, 0, 0, 1874.6, 1874.6, 19.8, 1.516, 3.330, 0.782, 0.014, 0.791, 0.152, 1.199, 0.582, 0.035, 0.099, 1.665, 0.000, 1.551, 3.216, 0.620, 0.010, 0.628, 0.165, 0.974, 0.581, 0.046, 0.085, 1.608, 0.000, 3.861, 3.399, 0.037, 0.002, 0.048, 1.220, 0.187, 4.809, 0.051, 3.686, 1.699, 0.029, 0.000, 0.000, 0.000, 0, 0, 6, 1, 0, 1, 0, 0, 3, 41, 43, 9, 14, 9, 7829, 0, 0, 3, 2, 0, 0, 0, 0, 4, 13, 23, 8, 5, 1, 5849, 1, 1, 15, 3, 0, 0, 0, 0, 7, 253, 274, 25, 15, 2, 1107,
 15:14:16.904,e36fca7b-ac85-42ee-9e80-64b80ac1a132, 2000-00-00 00:00:40.720, 39.31, 0.7822, 0.6201, 0.0366, 0.4341, 0.3853, 0.1904, 0.13, 0.11, 0.05, 0, 0, 0, 1910.3, 1910.3, 19.8, 1.514, 3.471, 0.782, 0.013, 0.790, 0.148, 1.197, 0.586, 0.105, 0.096, 1.735, 0.000, 1.561, 3.629, 0.620, 0.009, 0.627, 0.160, 0.980, 0.681, 0.054, 0.082, 1.814, 0.000, 5.109, 3.795, 0.037, 0.002, 0.047, 1.230, 0.243, 6.242, -0.121, 3.638, 1.897, 0.029, 0.000, 0.000, 0.000, 0, 0, 5, 3, 0, 1, 0, 1, 29, 35, 54, 16, 17, 7, 7206, 0, 0, 4, 2, 1, 0, 0, 1, 15, 22, 31, 12, 8, 4, 5551, 1, 1, 14, 2, 0, 0, 0, 0, 2, 234, 264, 34, 12, 3, 1188,
 15:14:17.149,e36fca7b-ac85-42ee-9e80-64b80ac1a132, 2000-00-00 00:00:40.965, 39.30, 0.7822, 0.6201, 0.0366, 0.4243, 0.3911, 0.1875, 0.13, 0.11, 0.05, 0, 0, 0, 1874.6, 1874.6, 19.8, 1.484, 3.339, 0.782, 0.012, 0.790, 0.140, 1.173, 0.534, 0.068, 0.091, 1.669, 0.000, 1.561, 3.443, 0.620, 0.009, 0.627, 0.152, 0.979, 0.644, -0.027, 0.078, 1.721, 0.000, 4.396, 3.662, 0.037, 0.002, 0.047, 1.220, 0.206, 5.400, 0.034, 3.568, 1.831, 0.028, 0.000, 0.000, 0.000, 0, 0, 5, 3, 0, 1, 0, 0, 28, 35, 46, 15, 21, 8, 6603, 0, 0, 4, 1, 1, 1, 0, 0, 19, 20, 24, 14, 8, 5, 4738, 1, 1, 15, 2, 0, 1, 0, 0, 6, 247, 266, 12, 11, 3, 1026,
 15:14:17.393,e36fca7b-ac85-42ee-9e80-64b80ac1a132, 2000-00-00 00:00:41.205, 39.31, 0.7822, 0.6201, 0.0366, 0.3931, 0.3677, 0.1797, 0.13, 0.11, 0.05, 0, 0, 0, 1874.6, 1874.6, 19.8, 1.486, 3.319, 0.782, 0.012, 0.790, 0.144, 1.174, 0.522, 0.064, 0.093, 1.659, 0.000, 1.537, 3.426, 0.620, 0.009, 0.627, 0.155, 0.964, 0.623, -0.001, 0.080, 1.713, 0.000, 3.956, 3.656, 0.037, 0.002, 0.047, 1.218, 0.185, 4.796, 0.119, 3.562, 1.828, 0.028, 0.000, 0.000, 0.000, 0, 0, 5, 1, 0, 1, 0, 0, 10, 34, 38, 11, 29, 6, 6124, 0, 0, 3, 1, 0, 0, 0, 0, 5, 12, 16, 9, 4, 3, 4585, 1, 0, 14, 2, 1, 0, 0, 0, 1, 226, 265, 11, 9, 2, 1094,
 15:14:17.638,e36fca7b-ac85-42ee-9e80-64b80ac1a132, 2000-00-00 00:00:41.450, 39.31, 0.7822, 0.6201, 0.0366, 0.3867, 0.3472, 0.1812, 0.12, 0.11, 0.05, 0, 0, 0, 1902.3, 1902.3, 19.8, 1.447, 3.239, 0.782, 0.011, 0.790, 0.135, 1.144, 0.520, 0.098, 0.086, 1.619, 0.000, 1.489, 3.239, 0.620, 0.008, 0.626, 0.147, 0.934, 0.543, 0.030, 0.076, 1.619, 0.000, 4.118, 3.782, 0.037, 0.002, 0.046, 1.237, 0.190, 5.305, 0.043, 3.529, 1.891, 0.028, 0.000, 0.000, 0.000, 0, 0, 6, 2, 0, 0, 0, 0, 5, 45, 54, 14, 33, 6, 6025, 1, 0, 2, 2, 0, 0, 0, 0, 3, 10, 16, 12, 11, 2, 4380, 1, 1, 15, 2, 0, 0, 0, 0, 4, 240, 269, 18, 9, 1, 1045,
 15:14:17.881,e36fca7b-ac85-42ee-9e80-64b80ac1a132, 2000-00-00 00:00:41.690, 39.31, 0.7822, 0.6201, 0.0366, 0.4072, 0.3354, 0.1758, 0.13, 0.11, 0.05, 0, 0, 0, 1874.6, 1874.6, 19.8, 1.516, 3.204, 0.782, 0.013, 0.791, 0.146, 1.200, 0.557, 0.017, 0.094, 1.602, 0.000, 1.483, 3.087, 0.620, 0.009, 0.627, 0.159, 0.931, 0.574, 0.033, 0.081, 1.543, 0.000, 3.781, 3.397, 0.037, 0.002, 0.047, 1.206, 0.178, 4.880, 0.142, 3.581, 1.698, 0.028, 0.000, 0.000, 0.000, 0, 0, 5, 1, 1, 1, 0, 0, 2, 31, 41, 12, 37, 10, 7468, 1, 0, 2, 2, 0, 0, 0, 0, 5, 11, 15, 14, 9, 2, 5333, 1, 0, 14, 2, 1, 0, 0, 0, 1, 225, 247, 34, 12, 2, 1082,
 15:14:18.124,e36fca7b-ac85-42ee-9e80-64b80ac1a132, 2000-00-00 00:00:41.935, 39.26, 0.7822, 0.6201, 0.0366, 0.3921, 0.3408, 0.1846, 0.13, 0.11, 0.05, 0, 0, 0, 1874.6, 1874.6, 19.8, 1.477, 3.071, 0.782, 0.013, 0.791, 0.148, 1.169, 0.517, 0.038, 0.096, 1.535, 0.000, 1.504, 3.227, 0.620, 0.009, 0.628, 0.160, 0.945, 0.569, 0.012, 0.082, 1.613, 0.000, 4.523, 3.655, 0.037, 0.002, 0.047, 1.239, 0.216, 5.555, 0.023, 3.669, 1.827, 0.029, 0.000, 0.000, 0.000, 0, 0, 6, 2, 0, 1, 0, 0, 24, 42, 53, 12, 40, 4, 7481, 1, 0, 3, 2, 0, 0, 0, 0, 15, 22, 25, 8, 3, 4, 5186, 1, 1, 14, 2, 1, 0, 0, 0, 5, 236, 258, 15, 8, 2, 1265,
 15:14:18.369,e36fca7b-ac85-42ee-9e80-64b80ac1a132, 2000-00-00 00:00:42.175, 39.29, 0.7822, 0.6201, 0.0366, 0.3877, 0.3511, 0.1821, 0.13, 0.11, 0.05, 0, 0, 0, 1874.6, 1874.6, 19.8, 1.477, 3.155, 0.782, 0.012, 0.790, 0.142, 1.168, 0.498, 0.003, 0.092, 1.577, 0.000, 1.510, 3.254, 0.620, 0.009, 0.627, 0.154, 0.948, 0.596, 0.028, 0.079, 1.627, 0.000, 4.514, 3.514, 0.037, 0.002, 0.046, 1.234, 0.211, 5.458, -0.114, 3.577, 1.757, 0.028, 0.000, 0.000, 0.000, 0, 0, 6, 1, 1, 0, 0, 1, 18, 42, 49, 14, 39, 2, 6344, 1, 0, 3, 2, 0, 0, 0, 0, 11, 12, 23, 12, 5, 2, 5012, 1, 1, 14, 2, 1, 0, 0, 0, 5, 236, 258, 15, 8, 2, 1265,
 15:14:18.614,e36fca7b-ac85-42ee-9e80-64b80ac1a132, 2000-00-00 00:00:42.420, 39.29, 0.7822, 0.6201, 0.0366, 0.3667, 0.3428, 0.1865, 0.12, 0.10, 0.05, 0, 0, 0, 1874.6, 1874.6, 19.8, 1.498, 3.382, 0.782, 0.011, 0.789, 0.135, 1.183, 0.542, 0.061, 0.088, 1.691, 0.000, 1.498, 3.651, 0.620, 0.008, 0.627, 0.149, 0.940, 0.666, 0.088, 0.077, 1.825, 0.000, 4.232, 3.682, 0.037, 0.001, 0.045, 1.233, 0.194, 5.311, 0.020, 3.512, 1.841, 0.028, 0.000, 0.000, 0.000, 0, 0, 6, 1, 1, 0, 0, 1, 18, 42, 49, 14, 39, 2, 6344, 1, 0, 3, 2, 0, 0, 0, 0, 11, 12, 23, 12, 5, 2, 5012, 1, 0, 14, 2, 0, 0, 0, 0, 1, 218, 253, 7, 5, 1, 1119,
 15:14:18.860,e36fca7b-ac85-42ee-9e80-64b80ac1a132, 2000-00-00 00:00:42.665, 39.25, 0.7822, 0.6201, 0.0366, 0.3804, 0.3501, 0.1797, 0.12, 0.10, 0.05, 0, 0, 0, 1874.6, 1870.6, 19.8, 1.479, 3.359, 0.782, 0.011, 0.790, 0.139, 1.169, 0.504, 0.046, 0.090, 1.679, 0.000, 1.490, 3.276, 0.620, 0.008, 0.627, 0.150, 0.935, 0.612, 0.084, 0.077, 1.638, 0.000, 3.932, 3.725, 0.037, 0.002, 0.047, 1.248, 0.186, 5.077, -0.049, 3.637, 1.862, 0.029, 0.000, 0.000, 0.000, 0, 0, 5, 1, 0, 1, 0, 0, 16, 32, 37, 16, 34, 3, 5903, 0, 0, 3, 2, 0, 0, 0, 0, 10, 13, 24, 10, 4, 1, 4545, 1, 0, 14, 2, 0, 0, 0, 0, 3, 226, 262, 17, 10, 0, 1069,
 15:14:19.102,e36fca7b-ac85-42ee-9e80-64b80ac1a132, 2000-00-00 00:00:42.905, 39.28, 0.7822, 0.6201, 0.0371, 0.3979, 0.3325, 0.1743, 0.12, 0.10, 0.05, 0, 0, 0, 1902.3, 1902.3, 19.8, 1.476, 3.297, 0.782, 0.012, 0.789, 0.141, 1.166, 0.529, 0.038, 0.090, 1.648, 0.000, 1.480, 3.235, 0.620, 0.008, 0.626, 0.150, 0.928, 0.544, 0.071, 0.076, 1.617, 0.000, 3.662, 3.398, 0.037, 0.002, 0.049, 1.229, 0.181, 4.732, 0.104, 3.808, 1.699, 0.030, 0.000, 0.000, 0.000, 0, 0, 5, 2, 0, 1, 0, 0, 1, 33, 43, 14, 40, 10, 5877, 0, 1, 3, 1, 0, 0, 0, 0, 3, 15, 19, 9, 3, 5, 4328, 0, 1, 15, 2, 0, 0, 0, 0, 3, 241, 263, 31, 9, 1, 1093,
