Time,Device name,Chip Time(),Temperature(℃),Acceleration X(g),Acceleration Y(g),Acceleration Z(g),X acceleration amplitude(g),Y acceleration amplitude(g),Z acceleration amplitude(g),X velocity amplitude(mm/s),Y velocity amplitude(mm/s),Z velocity amplitude(mm/s),X displacement amplitude(um),Y displacement amplitude(um),Z displacement amplitude(um),X frequency vibration frequency(Hz),Y frequency vibration frequency(Hz),Z frequency vibration frequency(Hz),(g),(g),(g),(g),(g),(),(g),(),(g),(mm/s),(g),(mm),(g),(g),(g),(g),(g),(),(g),(),(g),(mm/s),(g),(mm),(g),(g),(g),(g),(g),(),(g),(),(g),(mm/s),(g),(mm),(),(),(),(),(),(),(),(),(),(),(),(),(),(),(),(),(),(),(),(),(),(),(),(),(),(),(),(),(),(),(),(),(),(),(),(),(),(),(),(),(),(),(),(),(),(),(),()
 16:13:15.496,e36fca7b-ac85-42ee-9e80-64b80ac1a132, 2000-00-00 00:07:09.620, 39.21, 0.7822, 0.6196, 0.0107, 0.0122, 0.0137, 0.0127, 0.00, 0.00, 0.00, 0, 0, 0, 0.0, 0.0, 0.0, 1.015, -6.492, 0.782, 0.000, 0.782, 0.005, 0.794, 0.015, -4.083, 0.632, -3.246, 0.010, 1.022, 20.668, 0.620, 0.000, 0.620, 0.006, 0.633, 0.025, -12.911, 0.601, -22.434, 0.009, 2.113, 2.928, 0.011, 0.000, 0.011, 0.355, 0.024, 1.243, -0.060, 0.611, 1.464, 0.009, 0.000, 0.000, 0.000, 0, 0, 0, 0, 0, 0, 0, 0, 0, 0, 0, 0, 0, 0, 0, 0, 0, 0, 0, 0, 0, 0, 0, 0, 0, 0, 0, 0, 0, 0, 0, 0, 0, 0, 0, 0, 0, 0, 0, 0, 0, 0, 0, 0, 0,
 16:13:15.739,e36fca7b-ac85-42ee-9e80-64b80ac1a132, 2000-00-00 00:07:09.865, 39.21, 0.7822, 0.6196, 0.0107, 0.0117, 0.0132, 0.0122, 0.00, 0.00, 0.00, 0, 0, 0, 0.0, 0.0, 0.0, 1.016, -11.928, 0.782, 0.000, 0.782, 0.005, 0.795, 0.016, -4.457, 0.632, 26.804, 0.010, 1.021, -16.262, 0.620, 0.000, 0.620, 0.005, 0.633, 0.021, -20.797, 0.562, -8.131, 0.008, 2.009, 2.899, 0.011, 0.000, 0.011, 0.349, 0.023, 1.128, -0.033, 0.608, 1.449, 0.009, 0.000, 0.000, 0.000, 0, 0, 0, 0, 0, 0, 0, 0, 0, 0, 0, 0, 0, 0, 0, 0, 0, 0, 0, 0, 0, 0, 0, 0, 0, 0, 0, 0, 0, 0, 0, 0, 0, 0, 0, 0, 0, 0, 0, 0, 0, 0, 0, 0, 0,
 16:13:15.983,e36fca7b-ac85-42ee-9e80-64b80ac1a132, 2000-00-00 00:07:10.105, 39.21, 0.7822, 0.6196, 0.0107, 0.0117, 0.0127, 0.0122, 0.00, 0.00, 0.00, 0, 0, 0, 0.0, 0.0, 0.0, 1.014, 11.112, 0.782, 0.000, 0.782, 0.005, 0.793, 0.015, 2.401, 0.630, 5.556, 0.010, 1.021, -0.871, 0.620, 0.000, 0.620, 0.006, 0.633, 0.021, -7.074, 0.590, -0.435, 0.009, 1.988, 2.837, 0.011, 0.000, 0.011, 0.349, 0.023, 1.133, -0.020, 0.614, 1.418, 0.009, 0.000, 0.000, 0.000, 0, 0, 0, 0, 0, 0, 0, 0, 0, 0, 0, 0, 0, 0, 0, 0, 0, 0, 0, 0, 0, 0, 0, 0, 0, 0, 0, 0, 0, 0, 0, 0, 0, 0, 0, 0, 0, 0, 0, 0, 0, 0, 0, 0, 0,
 16:13:16.228,e36fca7b-ac85-42ee-9e80-64b80ac1a132, 2000-00-00 00:07:10.345, 39.21, 0.7822, 0.6196, 0.0107, 0.0122, 0.0127, 0.0122, 0.00, 0.00, 0.00, 0, 0, 0, 0.0, 0.0, 0.0, 1.016, 15.680, 0.782, 0.000, 0.782, 0.005, 0.795, 0.016, -7.137, 0.634, 7.840, 0.010, 1.021, -0.013, 0.620, 0.000, 0.620, 0.006, 0.633, 0.021, -10.593, 0.581, 32.762, 0.009, 2.132, 2.828, 0.011, 0.000, 0.011, 0.366, 0.024, 1.278, -0.061, 0.625, 1.414, 0.009, 0.000, 0.000, 0.000, 0, 0, 0, 0, 0, 0, 0, 0, 0, 0, 0, 0, 0, 0, 0, 0, 0, 0, 0, 0, 0, 0, 0, 0, 0, 0, 0, 0, 0, 0, 0, 0, 0, 0, 0, 0, 0, 0, 0, 0, 0, 0, 0, 0, 0,
 16:13:16.470,e36fca7b-ac85-42ee-9e80-64b80ac1a132, 2000-00-00 00:07:10.590, 39.20, 0.7822, 0.6196, 0.0107, 0.0117, 0.0127, 0.0122, 0.00, 0.00, 0.00, 0, 0, 0, 0.0, 0.0, 0.0, 1.014, 19.344, 0.782, 0.000, 0.782, 0.005, 0.794, 0.015, 2.165, 0.624, 9.672, 0.009, 1.020, 7.944, 0.620, 0.000, 0.620, 0.006, 0.632, 0.020, -9.635, 0.588, -28.796, 0.009, 1.983, 2.803, 0.011, 0.000, 0.011, 0.355, 0.022, 1.158, 0.037, 0.603, 1.401, 0.009, 0.000, 0.000, 0.000, 0, 0, 0, 0, 0, 0, 0, 0, 0, 0, 0, 0, 0, 0, 0, 0, 0, 0, 0, 0, 0, 0, 0, 0, 0, 0, 0, 0, 0, 0, 0, 0, 0, 0, 0, 0, 0, 0, 0, 0, 0, 0, 0, 0, 0,
 16:13:16.713,e36fca7b-ac85-42ee-9e80-64b80ac1a132, 2000-00-00 00:07:10.835, 39.20, 0.7822, 0.6196, 0.0107, 0.0112, 0.0127, 0.0122, 0.00, 0.00, 0.00, 0, 0, 0, 0.0, 0.0, 0.0, 1.014, 20.176, 0.782, 0.000, 0.782, 0.005, 0.793, 0.014, 6.881, 0.631, -22.680, 0.010, 1.019, 31.517, 0.620, 0.000, 0.620, 0.006, 0.631, 0.021, -11.795, 0.596, 15.759, 0.009, 1.996, 2.776, 0.011, 0.000, 0.011, 0.368, 0.022, 1.263, 0.017, 0.617, 1.388, 0.009, 0.000, 0.000, 0.000, 0, 0, 0, 0, 0, 0, 0, 0, 0, 0, 0, 0, 0, 0, 0, 0, 0, 0, 0, 0, 0, 0, 0, 0, 0, 0, 0, 0, 0, 0, 0, 0, 0, 0, 0, 0, 0, 0, 0, 0, 0, 0, 0, 0, 0,
 16:13:16.958,e36fca7b-ac85-42ee-9e80-64b80ac1a132, 2000-00-00 00:07:11.070, 39.20, 0.7822, 0.6196, 0.0107, 0.0117, 0.0127, 0.0122, 0.00, 0.00, 0.00, 0, 0, 0, 0.0, 0.0, 0.0, 1.016, 0.792, 0.782, 0.000, 0.782, 0.005, 0.795, 0.016, 1.247, 0.634, 0.396, 0.010, 1.019, -23.135, 0.620, 0.000, 0.620, 0.006, 0.632, 0.021, -10.605, 0.593, -11.567, 0.009, 2.034, 2.800, 0.011, 0.000, 0.011, 0.365, 0.023, 1.230, 0.058, 0.616, 1.400, 0.009, 0.000, 0.000, 0.000, 0, 0, 0, 0, 0, 0, 0, 0, 0, 0, 0, 0, 0, 0, 0, 0, 0, 0, 0, 0, 0, 0, 0, 0, 0, 0, 0, 0, 0, 0, 0, 0, 0, 0, 0, 0, 0, 0, 0, 0, 0, 0, 0, 0, 0,
 16:13:17.203,e36fca7b-ac85-42ee-9e80-64b80ac1a132, 2000-00-00 00:07:11.315, 39.20, 0.7822, 0.6196, 0.0107, 0.0122, 0.0127, 0.0122, 0.00, 0.00, 0.00, 0, 0, 0, 0.0, 0.0, 0.0, 1.015, 8.840, 0.782, 0.000, 0.782, 0.005, 0.794, 0.016, -17.130, 0.632, -28.348, 0.010, 1.020, -22.460, 0.620, 0.000, 0.620, 0.006, 0.633, 0.021, -8.612, 0.585, 21.538, 0.009, 2.018, 2.831, 0.011, 0.000, 0.011, 0.366, 0.023, 1.176, 0.044, 0.620, 1.415, 0.009, 0.000, 0.000, 0.000, 0, 0, 0, 0, 0, 0, 0, 0, 0, 0, 0, 0, 0, 0, 0, 0, 0, 0, 0, 0, 0, 0, 0, 0, 0, 0, 0, 0, 0, 0, 0, 0, 0, 0, 0, 0, 0, 0, 0, 0, 0, 0, 0, 0, 0,
 16:13:17.446,e36fca7b-ac85-42ee-9e80-64b80ac1a132, 2000-00-00 00:07:11.560, 39.21, 0.7822, 0.6196, 0.0107, 0.0112, 0.0122, 0.0122, 0.00, 0.00, 0.00, 0, 0, 0, 0.0, 0.0, 0.0, 1.015, 12.088, 0.782, 0.000, 0.782, 0.005, 0.794, 0.015, -12.480, 0.624, 6.044, 0.009, 1.019, 6.471, 0.620, 0.000, 0.620, 0.006, 0.632, 0.020, -12.127, 0.588, 3.236, 0.009, 2.013, 2.832, 0.011, 0.000, 0.011, 0.354, 0.023, 1.151, 0.015, 0.608, 1.416, 0.009, 0.000, 0.000, 0.000, 0, 0, 0, 0, 0, 0, 0, 0, 0, 0, 0, 0, 0, 0, 0, 0, 0, 0, 0, 0, 0, 0, 0, 0, 0, 0, 0, 0, 0, 0, 0, 0, 0, 0, 0, 0, 0, 0, 0, 0, 0, 0, 0, 0, 0,
 16:13:17.688,e36fca7b-ac85-42ee-9e80-64b80ac1a132, 2000-00-00 00:07:11.805, 39.21, 0.7822, 0.6196, 0.0107, 0.0117, 0.0122, 0.0127, 0.00, 0.00, 0.00, 0, 0, 0, 0.0, 0.0, 0.0, 1.016, 16.036, 0.782, 0.000, 0.782, 0.005, 0.795, 0.016, -4.908, 0.639, 8.018, 0.010, 1.020, -1.050, 0.620, 0.000, 0.620, 0.006, 0.632, 0.021, -11.235, 0.599, 32.243, 0.009, 2.049, 2.973, 0.011, 0.000, 0.011, 0.355, 0.024, 1.305, 0.046, 0.619, 1.486, 0.009, 0.000, 0.000, 0.000, 0, 0, 0, 0, 0, 0, 0, 0, 0, 0, 0, 0, 0, 0, 0, 0, 0, 0, 0, 0, 0, 0, 0, 0, 0, 0, 0, 0, 0, 0, 0, 0, 0, 0, 0, 0, 0, 0, 0, 0, 0, 0, 0, 0, 0,
 16:13:17.933,e36fca7b-ac85-42ee-9e80-64b80ac1a132, 2000-00-00 00:07:12.040, 39.21, 0.7822, 0.6196, 0.0107, 0.0122, 0.0127, 0.0132, 0.00, 0.00, 0.00, 0, 0, 0, 0.0, 0.0, 0.0, 1.016, -2.652, 0.782, 0.000, 0.782, 0.005, 0.795, 0.016, -17.305, 0.635, -1.326, 0.010, 1.021, -18.419, 0.620, 0.000, 0.620, 0.006, 0.633, 0.022, -16.074, 0.581, -9.209, 0.009, 1.992, 2.925, 0.011, 0.000, 0.011, 0.356, 0.023, 1.332, 0.000, 0.618, 1.462, 0.009, 0.000, 0.000, 0.000, 0, 0, 0, 0, 0, 0, 0, 0, 0, 0, 0, 0, 0, 0, 0, 0, 0, 0, 0, 0, 0, 0, 0, 0, 0, 0, 0, 0, 0, 0, 0, 0, 0, 0, 0, 0, 0, 0, 0, 0, 0, 0, 0, 0, 0,
 16:13:18.178,e36fca7b-ac85-42ee-9e80-64b80ac1a132, 2000-00-00 00:07:12.285, 39.21, 0.7822, 0.6196, 0.0107, 0.0122, 0.0127, 0.0137, 0.00, 0.00, 0.00, 0, 0, 0, 0.0, 0.0, 0.0, 1.015, 30.996, 0.782, 0.000, 0.782, 0.005, 0.794, 0.015, 5.771, 0.633, 15.498, 0.010, 1.020, 30.123, 0.620, 0.000, 0.620, 0.006, 0.632, 0.022, -20.808, 0.590, 15.062, 0.009, 2.067, 2.899, 0.011, 0.000, 0.011, 0.365, 0.024, 1.288, 0.019, 0.622, 1.449, 0.009, 0.000, 0.000, 0.000, 0, 0, 0, 0, 0, 0, 0, 0, 0, 0, 0, 0, 0, 0, 0, 0, 0, 0, 0, 0, 0, 0, 0, 0, 0, 0, 0, 0, 0, 0, 0, 0, 0, 0, 0, 0, 0, 0, 0, 0, 0, 0, 0, 0, 0,
 16:13:18.421,e36fca7b-ac85-42ee-9e80-64b80ac1a132, 2000-00-00 00:07:12.530, 39.21, 0.7822, 0.6196, 0.0107, 0.0117, 0.0127, 0.0127, 0.00, 0.00, 0.00, 0, 0, 0, 0.0, 0.0, 0.0, 1.014, -11.540, 0.782, 0.000, 0.782, 0.005, 0.794, 0.015, -6.200, 0.633, 26.998, 0.010, 1.020, 20.345, 0.620, 0.000, 0.619, 0.006, 0.632, 0.022, -10.024, 0.594, 10.173, 0.009, 2.020, 2.754, 0.011, 0.000, 0.011, 0.368, 0.023, 1.175, 0.012, 0.627, 1.377, 0.009, 0.000, 0.000, 0.000, 0, 0, 0, 0, 0, 0, 0, 0, 0, 0, 0, 0, 0, 0, 0, 0, 0, 0, 0, 0, 0, 0, 0, 0, 0, 0, 0, 0, 0, 0, 0, 0, 0, 0, 0, 0, 0, 0, 0, 0, 0, 0, 0, 0, 0,
 16:13:18.664,e36fca7b-ac85-42ee-9e80-64b80ac1a132, 2000-00-00 00:07:12.770, 39.21, 0.7822, 0.6196, 0.0107, 0.0122, 0.0122, 0.0122, 0.00, 0.00, 0.00, 0, 0, 0, 0.0, 0.0, 0.0, 1.016, 4.492, 0.782, 0.000, 0.782, 0.005, 0.795, 0.017, 1.164, 0.636, 2.246, 0.010, 1.021, 1.604, 0.620, 0.000, 0.620, 0.005, 0.633, 0.021, -15.557, 0.577, 0.802, 0.009, 2.005, 2.731, 0.011, 0.000, 0.011, 0.371, 0.023, 1.156, 0.047, 0.631, 1.365, 0.010, 0.000, 0.000, 0.000, 0, 0, 0, 0, 0, 0, 0, 0, 0, 0, 0, 0, 0, 0, 0, 0, 0, 0, 0, 0, 0, 0, 0, 0, 0, 0, 0, 0, 0, 0, 0, 0, 0, 0, 0, 0, 0, 0, 0, 0, 0, 0, 0, 0, 0,
 16:13:18.907,e36fca7b-ac85-42ee-9e80-64b80ac1a132, 2000-00-00 00:07:13.010, 39.21, 0.7822, 0.6196, 0.0107, 0.0122, 0.0132, 0.0117, 0.00, 0.00, 0.00, 0, 0, 0, 0.0, 0.0, 0.0, 1.015, 8.600, 0.782, 0.000, 0.782, 0.005, 0.794, 0.016, 4.032, 0.623, -28.468, 0.009, 1.020, 24.204, 0.620, 0.000, 0.620, 0.006, 0.633, 0.024, -18.641, 0.590, -20.666, 0.009, 1.967, 2.698, 0.011, 0.000, 0.011, 0.357, 0.022, 1.093, -0.032, 0.612, 1.349, 0.009, 0.000, 0.000, 0.000, 0, 0, 0, 0, 0, 0, 0, 0, 0, 0, 0, 0, 0, 0, 0, 0, 0, 0, 0, 0, 0, 0, 0, 0, 0, 0, 0, 0, 0, 0, 0, 0, 0, 0, 0, 0, 0, 0, 0, 0, 0, 0, 0, 0, 0,
 16:13:19.151,e36fca7b-ac85-42ee-9e80-64b80ac1a132, 2000-00-00 00:07:13.250, 39.21, 0.7822, 0.6196, 0.0107, 0.0117, 0.0127, 0.0122, 0.00, 0.00, 0.00, 0, 0, 0, 0.0, 0.0, 0.0, 1.014, 11.096, 0.782, 0.000, 0.782, 0.005, 0.794, 0.015, 7.248, 0.625, 5.548, 0.009, 1.020, 13.915, 0.620, 0.000, 0.620, 0.006, 0.632, 0.021, -13.169, 0.593, -25.810, 0.009, 1.958, 2.780, 0.011, 0.000, 0.011, 0.358, 0.022, 1.129, 0.074, 0.603, 1.390, 0.009, 0.000, 0.000, 0.000, 0, 0, 0, 0, 0, 0, 0, 0, 0, 0, 0, 0, 0, 0, 0, 0, 0, 0, 0, 0, 0, 0, 0, 0, 0, 0, 0, 0, 0, 0, 0, 0, 0, 0, 0, 0, 0, 0, 0, 0, 0, 0, 0, 0, 0,
 16:13:19.395,e36fca7b-ac85-42ee-9e80-64b80ac1a132, 2000-00-00 00:07:13.495, 39.21, 0.7822, 0.6196, 0.0107, 0.0112, 0.0122, 0.0122, 0.00, 0.00, 0.00, 0, 0, 0, 0.0, 0.0, 0.0, 1.014, -23.228, 0.782, 0.000, 0.782, 0.005, 0.794, 0.015, 1.725, 0.620, -11.614, 0.009, 1.021, 22.593, 0.620, 0.000, 0.620, 0.006, 0.633, 0.022, -12.099, 0.591, -21.471, 0.009, 1.972, 2.872, 0.011, 0.000, 0.011, 0.353, 0.022, 1.240, 0.031, 0.604, 1.436, 0.009, 0.000, 0.000, 0.000, 0, 0, 0, 0, 0, 0, 0, 0, 0, 0, 0, 0, 0, 0, 0, 0, 0, 0, 0, 0, 0, 0, 0, 0, 0, 0, 0, 0, 0, 0, 0, 0, 0, 0, 0, 0, 0, 0, 0, 0, 0, 0, 0, 0, 0,
 16:13:19.637,e36fca7b-ac85-42ee-9e80-64b80ac1a132, 2000-00-00 00:07:13.740, 39.21, 0.7822, 0.6196, 0.0107, 0.0112, 0.0127, 0.0127, 0.00, 0.00, 0.00, 0, 0, 0, 0.0, 0.0, 0.0, 1.013, 31.268, 0.782, 0.000, 0.782, 0.005, 0.793, 0.017, -1.558, 0.624, -17.134, 0.009, 1.021, -28.130, 0.620, 0.000, 0.619, 0.006, 0.633, 0.022, -13.929, 0.601, -14.065, 0.009, 2.050, 2.873, 0.011, 0.000, 0.011, 0.352, 0.024, 1.304, 0.062, 0.617, 1.436, 0.009, 0.000, 0.000, 0.000, 0, 0, 0, 0, 0, 0, 0, 0, 0, 0, 0, 0, 0, 0, 0, 0, 0, 0, 0, 0, 0, 0, 0, 0, 0, 0, 0, 0, 0, 0, 0, 0, 0, 0, 0, 0, 0, 0, 0, 0, 0, 0, 0, 0, 0,
 16:13:19.879,e36fca7b-ac85-42ee-9e80-64b80ac1a132, 2000-00-00 00:07:13.975, 39.20, 0.7822, 0.6196, 0.0107, 0.0112, 0.0132, 0.0127, 0.00, 0.00, 0.00, 0, 0, 0, 0.0, 0.0, 0.0, 1.014, 21.992, 0.782, 0.000, 0.782, 0.005, 0.793, 0.014, 8.315, 0.634, 10.996, 0.010, 1.022, -12.960, 0.620, 0.000, 0.619, 0.006, 0.633, 0.023, -9.038, 0.604, 26.288, 0.009, 2.036, 2.872, 0.011, 0.000, 0.011, 0.365, 0.023, 1.269, 0.009, 0.622, 1.436, 0.009, 0.000, 0.000, 0.000, 0, 0, 0, 0, 0, 0, 0, 0, 0, 0, 0, 0, 0, 0, 0, 0, 0, 0, 0, 0, 0, 0, 0, 0, 0, 0, 0, 0, 0, 0, 0, 0, 0, 0, 0, 0, 0, 0, 0, 0, 0, 0, 0, 0, 0,
 16:13:20.122,e36fca7b-ac85-42ee-9e80-64b80ac1a132, 2000-00-00 00:07:14.220, 39.20, 0.7822, 0.6196, 0.0107, 0.0112, 0.0132, 0.0122, 0.00, 0.00, 0.00, 0, 0, 0, 0.0, 0.0, 0.0, 1.015, 19.064, 0.782, 0.000, 0.782, 0.005, 0.794, 0.015, -0.314, 0.632, -23.236, 0.010, 1.021, 19.746, 0.620, 0.000, 0.619, 0.006, 0.633, 0.021, -16.827, 0.587, 9.873, 0.009, 1.986, 2.781, 0.011, 0.000, 0.011, 0.363, 0.023, 1.162, -0.077, 0.617, 1.390, 0.009, 0.000, 0.000, 0.000, 0, 0, 0, 0, 0, 0, 0, 0, 0, 0, 0, 0, 0, 0, 0, 0, 0, 0, 0, 0, 0, 0, 0, 0, 0, 0, 0, 0, 0, 0, 0, 0, 0, 0, 0, 0, 0, 0, 0, 0, 0, 0, 0, 0, 0,
 16:13:20.367,e36fca7b-ac85-42ee-9e80-64b80ac1a132, 2000-00-00 00:07:14.460, 39.20, 0.7822, 0.6196, 0.0107, 0.0117, 0.0132, 0.0122, 0.00, 0.00, 0.00, 0, 0, 0, 0.0, 0.0, 0.0, 1.016, 1.332, 0.782, 0.000, 0.782, 0.005, 0.795, 0.016, -2.123, 0.627, -32.102, 0.009, 1.020, 4.813, 0.620, 0.000, 0.620, 0.005, 0.632, 0.021, -17.358, 0.578, 2.407, 0.009, 1.937, 2.769, 0.011, 0.000, 0.011, 0.358, 0.022, 1.114, 0.044, 0.612, 1.384, 0.009, 0.000, 0.000, 0.000, 0, 0, 0, 0, 0, 0, 0, 0, 0, 0, 0, 0, 0, 0, 0, 0, 0, 0, 0, 0, 0, 0, 0, 0, 0, 0, 0, 0, 0, 0, 0, 0, 0, 0, 0, 0, 0, 0, 0, 0, 0, 0, 0, 0, 0,
 16:13:20.611,e36fca7b-ac85-42ee-9e80-64b80ac1a132, 2000-00-00 00:07:14.705, 39.20, 0.7822, 0.6196, 0.0107, 0.0117, 0.0132, 0.0127, 0.00, 0.00, 0.00, 0, 0, 0, 0.0, 0.0, 0.0, 1.016, 25.564, 0.782, 0.000, 0.782, 0.005, 0.795, 0.016, -8.839, 0.630, -19.986, 0.010, 1.021, -0.908, 0.620, 0.000, 0.620, 0.005, 0.633, 0.022, -28.198, 0.574, -0.454, 0.009, 2.093, 2.772, 0.011, 0.000, 0.011, 0.365, 0.024, 1.259, 0.008, 0.625, 1.386, 0.009, 0.000, 0.000, 0.000, 0, 0, 0, 0, 0, 0, 0, 0, 0, 0, 0, 0, 0, 0, 0, 0, 0, 0, 0, 0, 0, 0, 0, 0, 0, 0, 0, 0, 0, 0, 0, 0, 0, 0, 0, 0, 0, 0, 0, 0, 0, 0, 0, 0, 0,
 16:13:20.854,e36fca7b-ac85-42ee-9e80-64b80ac1a132, 2000-00-00 00:07:14.950, 39.21, 0.7822, 0.6196, 0.0107, 0.0122, 0.0132, 0.0127, 0.00, 0.00, 0.00, 0, 0, 0, 0.0, 0.0, 0.0, 1.016, 13.568, 0.782, 0.000, 0.782, 0.005, 0.795, 0.016, -5.197, 0.634, 6.784, 0.010, 1.021, -28.181, 0.620, 0.000, 0.619, 0.006, 0.633, 0.021, -10.048, 0.593, -14.090, 0.009, 2.042, 2.873, 0.011, 0.000, 0.011, 0.363, 0.023, 1.304, 0.026, 0.620, 1.436, 0.009, 0.000, 0.000, 0.000, 0, 0, 0, 0, 0, 0, 0, 0, 0, 0, 0, 0, 0, 0, 0, 0, 0, 0, 0, 0, 0, 0, 0, 0, 0, 0, 0, 0, 0, 0, 0, 0, 0, 0, 0, 0, 0, 0, 0, 0, 0, 0, 0, 0, 0,
 16:13:21.098,e36fca7b-ac85-42ee-9e80-64b80ac1a132, 2000-00-00 00:07:15.185, 39.20, 0.7822, 0.6196, 0.0107, 0.0132, 0.0127, 0.0132, 0.00, 0.00, 0.00, 0, 0, 0, 0.0, 0.0, 0.0, 1.016, 17.356, 0.782, 0.000, 0.782, 0.005, 0.795, 0.016, -2.720, 0.629, 8.678, 0.010, 1.021, -24.578, 0.620, 0.000, 0.619, 0.006, 0.633, 0.022, -4.436, 0.601, -12.289, 0.009, 2.056, 2.912, 0.011, 0.000, 0.011, 0.355, 0.024, 1.215, 0.062, 0.617, 1.456, 0.009, 0.000, 0.000, 0.000, 0, 0, 0, 0, 0, 0, 0, 0, 0, 0, 0, 0, 0, 0, 0, 0, 0, 0, 0, 0, 0, 0, 0, 0, 0, 0, 0, 0, 0, 0, 0, 0, 0, 0, 0, 0, 0, 0, 0, 0, 0, 0, 0, 0, 0,
 16:13:21.343,e36fca7b-ac85-42ee-9e80-64b80ac1a132, 2000-00-00 00:07:15.430, 39.20, 0.7822, 0.6196, 0.0107, 0.0127, 0.0127, 0.0127, 0.00, 0.00, 0.00, 0, 0, 0, 0.0, 0.0, 0.0, 1.016, -21.372, 0.782, 0.000, 0.782, 0.005, 0.795, 0.016, -8.632, 0.638, -10.686, 0.010, 1.023, 4.373, 0.620, 0.000, 0.620, 0.006, 0.634, 0.024, -7.255, 0.614, 2.187, 0.009, 2.032, 2.789, 0.011, 0.000, 0.011, 0.351, 0.024, 1.177, 0.011, 0.616, 1.394, 0.009, 0.000, 0.000, 0.000, 0, 0, 0, 0, 0, 0, 0, 0, 0, 0, 0, 0, 0, 0, 0, 0, 0, 0, 0, 0, 0, 0, 0, 0, 0, 0, 0, 0, 0, 0, 0, 0, 0, 0, 0, 0, 0, 0, 0, 0, 0, 0, 0, 0, 0,
 16:13:21.586,e36fca7b-ac85-42ee-9e80-64b80ac1a132, 2000-00-00 00:07:15.675, 39.20, 0.7822, 0.6196, 0.0107, 0.0122, 0.0132, 0.0127, 0.00, 0.00, 0.00, 0, 0, 0, 0.0, 0.0, 0.0, 1.016, -25.848, 0.782, 0.000, 0.782, 0.005, 0.795, 0.017, 1.442, 0.627, 19.844, 0.009, 1.023, -9.598, 0.620, 0.000, 0.620, 0.006, 0.634, 0.024, -11.059, 0.596, 27.969, 0.009, 2.059, 2.841, 0.011, 0.000, 0.011, 0.364, 0.024, 1.227, 0.016, 0.628, 1.420, 0.009, 0.000, 0.000, 0.000, 0, 0, 0, 0, 0, 0, 0, 0, 0, 0, 0, 0, 0, 0, 0, 0, 0, 0, 0, 0, 0, 0, 0, 0, 0, 0, 0, 0, 0, 0, 0, 0, 0, 0, 0, 0, 0, 0, 0, 0, 0, 0, 0, 0, 0,
 16:13:21.831,e36fca7b-ac85-42ee-9e80-64b80ac1a132, 2000-00-00 00:07:15.915, 39.20, 0.7822, 0.6196, 0.0107, 0.0122, 0.0137, 0.0127, 0.00, 0.00, 0.00, 0, 0, 0, 0.0, 0.0, 0.0, 1.014, 8.632, 0.782, 0.000, 0.782, 0.005, 0.793, 0.017, -0.853, 0.624, 4.316, 0.009, 1.019, -28.992, 0.620, 0.000, 0.620, 0.006, 0.632, 0.024, -16.436, 0.580, -14.496, 0.009, 2.076, 2.833, 0.011, 0.000, 0.011, 0.363, 0.024, 1.281, 0.031, 0.625, 1.416, 0.009, 0.000, 0.000, 0.000, 0, 0, 0, 0, 0, 0, 0, 0, 0, 0, 0, 0, 0, 0, 0, 0, 0, 0, 0, 0, 0, 0, 0, 0, 0, 0, 0, 0, 0, 0, 0, 0, 0, 0, 0, 0, 0, 0, 0, 0, 0, 0, 0, 0, 0,
 16:13:22.073,e36fca7b-ac85-42ee-9e80-64b80ac1a132, 2000-00-00 00:07:16.155, 39.20, 0.7822, 0.6196, 0.0107, 0.0122, 0.0132, 0.0127, 0.00, 0.00, 0.00, 0, 0, 0, 0.0, 0.0, 0.0, 1.016, 20.172, 0.782, 0.000, 0.782, 0.005, 0.795, 0.017, -8.539, 0.638, 10.086, 0.010, 1.022, -5.810, 0.620, 0.000, 0.620, 0.006, 0.634, 0.024, -13.274, 0.586, 29.863, 0.009, 2.021, 2.877, 0.011, 0.000, 0.011, 0.365, 0.023, 1.183, -0.007, 0.620, 1.438, 0.009, 0.000, 0.000, 0.000, 0, 0, 0, 0, 0, 0, 0, 0, 0, 0, 0, 0, 0, 0, 0, 0, 0, 0, 0, 0, 0, 0, 0, 0, 0, 0, 0, 0, 0, 0, 0, 0, 0, 0, 0, 0, 0, 0, 0, 0, 0, 0, 0, 0, 0,
 16:13:22.316,e36fca7b-ac85-42ee-9e80-64b80ac1a132, 2000-00-00 00:07:16.395, 39.20, 0.7822, 0.6196, 0.0107, 0.0127, 0.0132, 0.0127, 0.00, 0.00, 0.00, 0, 0, 0, 0.0, 0.0, 0.0, 1.015, -17.292, 0.782, 0.000, 0.782, 0.005, 0.794, 0.017, -10.153, 0.633, -8.646, 0.010, 1.021, -23.506, 0.620, 0.000, 0.619, 0.006, 0.633, 0.022, -11.849, 0.591, 21.015, 0.009, 2.015, 2.888, 0.011, 0.000, 0.011, 0.367, 0.023, 1.287, 0.011, 0.633, 1.444, 0.010, 0.000, 0.000, 0.000, 0, 0, 0, 0, 0, 0, 0, 0, 0, 0, 0, 0, 0, 0, 0, 0, 0, 0, 0, 0, 0, 0, 0, 0, 0, 0, 0, 0, 0, 0, 0, 0, 0, 0, 0, 0, 0, 0, 0, 0, 0, 0, 0, 0, 0,
 16:13:22.561,e36fca7b-ac85-42ee-9e80-64b80ac1a132, 2000-00-00 00:07:16.640, 39.20, 0.7822, 0.6196, 0.0107, 0.0122, 0.0127, 0.0122, 0.00, 0.00, 0.00, 0, 0, 0, 0.0, 0.0, 0.0, 1.015, -26.580, 0.782, 0.000, 0.782, 0.005, 0.794, 0.015, -12.728, 0.623, -13.290, 0.009, 1.020, -21.367, 0.620, 0.000, 0.620, 0.006, 0.632, 0.022, -11.721, 0.594, 22.085, 0.009, 1.916, 2.873, 0.011, 0.000, 0.011, 0.349, 0.022, 1.188, 0.051, 0.608, 1.436, 0.009, 0.000, 0.000, 0.000, 0, 0, 0, 0, 0, 0, 0, 0, 0, 0, 0, 0, 0, 0, 0, 0, 0, 0, 0, 0, 0, 0, 0, 0, 0, 0, 0, 0, 0, 0, 0, 0, 0, 0, 0, 0, 0, 0, 0, 0, 0, 0, 0, 0, 0,
 16:13:22.803,e36fca7b-ac85-42ee-9e80-64b80ac1a132, 2000-00-00 00:07:16.885, 39.20, 0.7822, 0.6196, 0.0107, 0.0127, 0.0122, 0.0127, 0.00, 0.00, 0.00, 0, 0, 0, 0.0, 0.0, 0.0, 1.017, 2.148, 0.782, 0.000, 0.782, 0.005, 0.796, 0.017, -8.438, 0.624, -31.694, 0.009, 1.019, 11.093, 0.620, 0.000, 0.620, 0.006, 0.632, 0.020, -12.888, 0.584, -27.221, 0.009, 2.018, 2.855, 0.011, 0.000, 0.011, 0.348, 0.024, 1.177, -0.006, 0.615, 1.427, 0.009, 0.000, 0.000, 0.000, 0, 0, 0, 0, 0, 0, 0, 0, 0, 0, 0, 0, 0, 0, 0, 0, 0, 0, 0, 0, 0, 0, 0, 0, 0, 0, 0, 0, 0, 0, 0, 0, 0, 0, 0, 0, 0, 0, 0, 0, 0, 0, 0, 0, 0,
 16:13:23.046,e36fca7b-ac85-42ee-9e80-64b80ac1a132, 2000-00-00 00:07:17.120, 39.20, 0.7822, 0.6196, 0.0107, 0.0122, 0.0122, 0.0127, 0.00, 0.00, 0.00, 0, 0, 0, 0.0, 0.0, 0.0, 1.014, -19.976, 0.782, 0.000, 0.782, 0.005, 0.794, 0.015, 11.372, 0.625, 22.780, 0.009, 1.019, -14.037, 0.620, 0.000, 0.620, 0.006, 0.632, 0.020, -9.234, 0.586, 25.750, 0.009, 2.043, 2.839, 0.011, 0.000, 0.011, 0.351, 0.024, 1.172, -0.037, 0.620, 1.419, 0.009, 0.000, 0.000, 0.000, 0, 0, 0, 0, 0, 0, 0, 0, 0, 0, 0, 0, 0, 0, 0, 0, 0, 0, 0, 0, 0, 0, 0, 0, 0, 0, 0, 0, 0, 0, 0, 0, 0, 0, 0, 0, 0, 0, 0, 0, 0, 0, 0, 0, 0,
 16:13:23.290,e36fca7b-ac85-42ee-9e80-64b80ac1a132, 2000-00-00 00:07:17.365, 39.20, 0.7822, 0.6196, 0.0107, 0.0117, 0.0122, 0.0127, 0.00, 0.00, 0.00, 0, 0, 0, 0.0, 0.0, 0.0, 1.014, -20.764, 0.782, 0.000, 0.782, 0.005, 0.794, 0.015, 7.893, 0.640, -10.382, 0.010, 1.020, 16.613, 0.620, 0.000, 0.620, 0.006, 0.632, 0.020, -17.235, 0.582, 8.307, 0.009, 2.026, 2.830, 0.011, 0.000, 0.011, 0.348, 0.024, 1.236, -0.013, 0.615, 1.415, 0.009, 0.000, 0.000, 0.000, 0, 0, 0, 0, 0, 0, 0, 0, 0, 0, 0, 0, 0, 0, 0, 0, 0, 0, 0, 0, 0, 0, 0, 0, 0, 0, 0, 0, 0, 0, 0, 0, 0, 0, 0, 0, 0, 0, 0, 0, 0, 0, 0, 0, 0,
 16:13:23.535,e36fca7b-ac85-42ee-9e80-64b80ac1a132, 2000-00-00 00:07:17.610, 39.20, 0.7822, 0.6196, 0.0107, 0.0117, 0.0122, 0.0127, 0.00, 0.00, 0.00, 0, 0, 0, 0.0, 0.0, 0.0, 1.016, 5.960, 0.782, 0.000, 0.782, 0.005, 0.795, 0.017, -2.971, 0.642, -29.788, 0.010, 1.019, -3.137, 0.620, 0.000, 0.620, 0.006, 0.632, 0.020, -15.611, 0.582, -1.568, 0.009, 2.009, 2.886, 0.011, 0.000, 0.011, 0.344, 0.024, 1.146, 0.000, 0.607, 1.443, 0.009, 0.000, 0.000, 0.000, 0, 0, 0, 0, 0, 0, 0, 0, 0, 0, 0, 0, 0, 0, 0, 0, 0, 0, 0, 0, 0, 0, 0, 0, 0, 0, 0, 0, 0, 0, 0, 0, 0, 0, 0, 0, 0, 0, 0, 0, 0, 0, 0, 0, 0,
 16:13:23.779,e36fca7b-ac85-42ee-9e80-64b80ac1a132, 2000-00-00 00:07:17.855, 39.20, 0.7822, 0.6196, 0.0107, 0.0122, 0.0127, 0.0122, 0.00, 0.00, 0.00, 0, 0, 0, 0.0, 0.0, 0.0, 1.017, 22.800, 0.782, 0.000, 0.782, 0.005, 0.795, 0.017, -10.863, 0.647, -21.368, 0.010, 1.022, -12.113, 0.620, 0.000, 0.620, 0.006, 0.634, 0.023, -11.455, 0.588, 26.712, 0.009, 1.985, 2.851, 0.011, 0.000, 0.012, 0.353, 0.023, 1.119, -0.006, 0.624, 1.425, 0.009, 0.000, 0.000, 0.000, 0, 0, 0, 0, 0, 0, 0, 0, 0, 0, 0, 0, 0, 0, 0, 0, 0, 0, 0, 0, 0, 0, 0, 0, 0, 0, 0, 0, 0, 0, 0, 0, 0, 0, 0, 0, 0, 0, 0, 0, 0, 0, 0, 0, 0,
 16:13:24.023,e36fca7b-ac85-42ee-9e80-64b80ac1a132, 2000-00-00 00:07:18.090, 39.20, 0.7822, 0.6196, 0.0107, 0.0122, 0.0132, 0.0127, 0.00, 0.00, 0.00, 0, 0, 0, 0.0, 0.0, 0.0, 1.014, 5.004, 0.782, 0.000, 0.782, 0.005, 0.794, 0.015, -5.392, 0.624, -30.266, 0.009, 1.021, 1.192, 0.620, 0.000, 0.620, 0.006, 0.633, 0.021, -11.217, 0.588, -32.172, 0.009, 2.011, 2.823, 0.011, 0.000, 0.011, 0.361, 0.023, 1.220, -0.003, 0.618, 1.411, 0.009, 0.000, 0.000, 0.000, 0, 0, 0, 0, 0, 0, 0, 0, 0, 0, 0, 0, 0, 0, 0, 0, 0, 0, 0, 0, 0, 0, 0, 0, 0, 0, 0, 0, 0, 0, 0, 0, 0, 0, 0, 0, 0, 0, 0, 0, 0, 0, 0, 0, 0,
 16:13:24.266,e36fca7b-ac85-42ee-9e80-64b80ac1a132, 2000-00-00 00:07:18.335, 39.21, 0.7822, 0.6196, 0.0107, 0.0117, 0.0127, 0.0132, 0.00, 0.00, 0.00, 0, 0, 0, 0.0, 0.0, 0.0, 1.016, -14.220, 0.782, 0.000, 0.782, 0.005, 0.795, 0.016, -6.824, 0.627, 25.658, 0.009, 1.021, -4.916, 0.620, 0.000, 0.620, 0.006, 0.633, 0.021, -8.764, 0.592, -2.458, 0.009, 2.105, 3.059, 0.011, 0.000, 0.011, 0.355, 0.024, 1.382, 0.009, 0.609, 1.529, 0.009, 0.000, 0.000, 0.000, 0, 0, 0, 0, 0, 0, 0, 0, 0, 0, 0, 0, 0, 0, 0, 0, 0, 0, 0, 0, 0, 0, 0, 0, 0, 0, 0, 0, 0, 0, 0, 0, 0, 0, 0, 0, 0, 0, 0, 0, 0, 0, 0, 0, 0,
 16:13:24.511,e36fca7b-ac85-42ee-9e80-64b80ac1a132, 2000-00-00 00:07:18.580, 39.21, 0.7822, 0.6196, 0.0107, 0.0112, 0.0132, 0.0127, 0.00, 0.00, 0.00, 0, 0, 0, 0.0, 0.0, 0.0, 1.014, 26.152, 0.782, 0.000, 0.782, 0.005, 0.793, 0.014, 10.900, 0.614, -19.692, 0.009, 1.020, 7.311, 0.620, 0.000, 0.619, 0.006, 0.632, 0.022, -12.385, 0.589, 3.656, 0.009, 2.061, 2.849, 0.011, 0.000, 0.011, 0.359, 0.023, 1.209, -0.007, 0.609, 1.424, 0.009, 0.000, 0.000, 0.000, 0, 0, 0, 0, 0, 0, 0, 0, 0, 0, 0, 0, 0, 0, 0, 0, 0, 0, 0, 0, 0, 0, 0, 0, 0, 0, 0, 0, 0, 0, 0, 0, 0, 0, 0, 0, 0, 0, 0, 0, 0, 0, 0, 0, 0,
 16:13:24.755,e36fca7b-ac85-42ee-9e80-64b80ac1a132, 2000-00-00 00:07:18.825, 39.21, 0.7822, 0.6196, 0.0107, 0.0117, 0.0132, 0.0127, 0.00, 0.00, 0.00, 0, 0, 0, 0.0, 0.0, 0.0, 1.015, -18.212, 0.782, 0.000, 0.782, 0.005, 0.794, 0.016, -4.711, 0.631, 23.662, 0.010, 1.020, -12.048, 0.620, 0.000, 0.620, 0.006, 0.632, 0.024, -17.791, 0.592, -6.024, 0.009, 2.057, 2.919, 0.011, 0.000, 0.011, 0.354, 0.024, 1.211, -0.046, 0.607, 1.459, 0.009, 0.000, 0.000, 0.000, 0, 0, 0, 0, 0, 0, 0, 0, 0, 0, 0, 0, 0, 0, 0, 0, 0, 0, 0, 0, 0, 0, 0, 0, 0, 0, 0, 0, 0, 0, 0, 0, 0, 0, 0, 0, 0, 0, 0, 0, 0, 0, 0, 0, 0,
 16:13:25.000,e36fca7b-ac85-42ee-9e80-64b80ac1a132, 2000-00-00 00:07:19.060, 39.21, 0.7822, 0.6196, 0.0107, 0.0117, 0.0132, 0.0122, 0.00, 0.00, 0.00, 0, 0, 0, 0.0, 0.0, 0.0, 1.014, -31.352, 0.782, 0.000, 0.782, 0.005, 0.794, 0.016, -9.518, 0.626, 17.092, 0.009, 1.021, -8.010, 0.620, 0.000, 0.619, 0.006, 0.633, 0.022, -21.411, 0.582, 28.763, 0.009, 1.979, 2.782, 0.011, 0.000, 0.011, 0.365, 0.022, 1.205, -0.001, 0.617, 1.391, 0.009, 0.000, 0.000, 0.000, 0, 0, 0, 0, 0, 0, 0, 0, 0, 0, 0, 0, 0, 0, 0, 0, 0, 0, 0, 0, 0, 0, 0, 0, 0, 0, 0, 0, 0, 0, 0, 0, 0, 0, 0, 0, 0, 0, 0, 0, 0, 0, 0, 0, 0,
 16:13:25.244,e36fca7b-ac85-42ee-9e80-64b80ac1a132, 2000-00-00 00:07:19.305, 39.21, 0.7822, 0.6196, 0.0107, 0.0122, 0.0127, 0.0122, 0.00, 0.00, 0.00, 0, 0, 0, 0.0, 0.0, 0.0, 1.015, -22.704, 0.782, 0.000, 0.782, 0.005, 0.794, 0.017, -25.478, 0.640, 21.416, 0.010, 1.021, -18.068, 0.620, 0.000, 0.620, 0.006, 0.633, 0.021, -11.693, 0.586, 23.734, 0.009, 1.973, 2.837, 0.011, 0.000, 0.011, 0.365, 0.022, 1.230, 0.064, 0.621, 1.418, 0.009, 0.000, 0.000, 0.000, 0, 0, 0, 0, 0, 0, 0, 0, 0, 0, 0, 0, 0, 0, 0, 0, 0, 0, 0, 0, 0, 0, 0, 0, 0, 0, 0, 0, 0, 0, 0, 0, 0, 0, 0, 0, 0, 0, 0, 0, 0, 0, 0, 0, 0,
 16:13:25.488,e36fca7b-ac85-42ee-9e80-64b80ac1a132, 2000-00-00 00:07:19.550, 39.21, 0.7822, 0.6196, 0.0107, 0.0122, 0.0127, 0.0122, 0.00, 0.00, 0.00, 0, 0, 0, 0.0, 0.0, 0.0, 1.016, -23.844, 0.782, 0.000, 0.782, 0.005, 0.795, 0.017, 2.785, 0.632, -11.922, 0.010, 1.021, 14.304, 0.620, 0.000, 0.620, 0.006, 0.633, 0.021, -17.708, 0.587, -25.616, 0.009, 1.937, 2.835, 0.011, 0.000, 0.011, 0.358, 0.022, 1.168, 0.030, 0.614, 1.417, 0.009, 0.000, 0.000, 0.000, 0, 0, 0, 0, 0, 0, 0, 0, 0, 0, 0, 0, 0, 0, 0, 0, 0, 0, 0, 0, 0, 0, 0, 0, 0, 0, 0, 0, 0, 0, 0, 0, 0, 0, 0, 0, 0, 0, 0, 0, 0, 0, 0, 0, 0,
 16:13:25.731,e36fca7b-ac85-42ee-9e80-64b80ac1a132, 2000-00-00 00:07:19.795, 39.21, 0.7822, 0.6196, 0.0107, 0.0122, 0.0127, 0.0127, 0.00, 0.00, 0.00, 0, 0, 0, 0.0, 0.0, 0.0, 1.016, 24.236, 0.782, 0.000, 0.782, 0.005, 0.795, 0.017, 1.787, 0.632, -20.650, 0.010, 1.020, -17.571, 0.620, 0.000, 0.620, 0.005, 0.632, 0.022, -23.022, 0.573, -8.785, 0.009, 1.969, 2.723, 0.011, 0.000, 0.011, 0.360, 0.022, 1.236, 0.042, 0.608, 1.361, 0.009, 0.000, 0.000, 0.000, 0, 0, 0, 0, 0, 0, 0, 0, 0, 0, 0, 0, 0, 0, 0, 0, 0, 0, 0, 0, 0, 0, 0, 0, 0, 0, 0, 0, 0, 0, 0, 0, 0, 0, 0, 0, 0, 0, 0, 0, 0, 0, 0, 0, 0,
 16:13:25.974,e36fca7b-ac85-42ee-9e80-64b80ac1a132, 2000-00-00 00:07:20.030, 39.20, 0.7822, 0.6196, 0.0107, 0.0117, 0.0127, 0.0132, 0.00, 0.00, 0.00, 0, 0, 0, 0.0, 0.0, 0.0, 1.015, -27.424, 0.782, 0.000, 0.782, 0.005, 0.794, 0.016, 0.609, 0.636, 19.056, 0.010, 1.019, 28.958, 0.620, 0.000, 0.620, 0.006, 0.632, 0.021, -22.747, 0.581, -18.289, 0.009, 2.018, 2.898, 0.011, 0.000, 0.011, 0.358, 0.023, 1.361, 0.034, 0.609, 1.449, 0.009, 0.000, 0.000, 0.000, 0, 0, 0, 0, 0, 0, 0, 0, 0, 0, 0, 0, 0, 0, 0, 0, 0, 0, 0, 0, 0, 0, 0, 0, 0, 0, 0, 0, 0, 0, 0, 0, 0, 0, 0, 0, 0, 0, 0, 0, 0, 0, 0, 0, 0,
 16:13:26.218,e36fca7b-ac85-42ee-9e80-64b80ac1a132, 2000-00-00 00:07:20.275, 39.20, 0.7822, 0.6196, 0.0107, 0.0122, 0.0132, 0.0127, 0.00, 0.00, 0.00, 0, 0, 0, 0.0, 0.0, 0.0, 1.015, 5.160, 0.782, 0.000, 0.782, 0.005, 0.794, 0.015, -1.852, 0.620, -30.188, 0.009, 1.020, -16.167, 0.620, 0.000, 0.620, 0.006, 0.632, 0.022, -8.256, 0.595, 24.685, 0.009, 1.968, 2.758, 0.011, 0.000, 0.011, 0.355, 0.022, 1.148, 0.011, 0.604, 1.379, 0.009, 0.000, 0.000, 0.000, 0, 0, 0, 0, 0, 0, 0, 0, 0, 0, 0, 0, 0, 0, 0, 0, 0, 0, 0, 0, 0, 0, 0, 0, 0, 0, 0, 0, 0, 0, 0, 0, 0, 0, 0, 0, 0, 0, 0, 0, 0, 0, 0, 0, 0,
 16:13:26.460,e36fca7b-ac85-42ee-9e80-64b80ac1a132, 2000-00-00 00:07:20.515, 39.20, 0.7822, 0.6196, 0.0107, 0.0112, 0.0127, 0.0122, 0.00, 0.00, 0.00, 0, 0, 0, 0.0, 0.0, 0.0, 1.014, 30.836, 0.782, 0.000, 0.782, 0.005, 0.793, 0.015, 6.549, 0.625, -17.350, 0.009, 1.021, 32.440, 0.620, 0.000, 0.620, 0.006, 0.633, 0.022, -22.816, 0.587, 16.220, 0.009, 2.055, 2.831, 0.011, 0.000, 0.011, 0.357, 0.023, 1.197, 0.005, 0.606, 1.415, 0.009, 0.000, 0.000, 0.000, 0, 0, 0, 0, 0, 0, 0, 0, 0, 0, 0, 0, 0, 0, 0, 0, 0, 0, 0, 0, 0, 0, 0, 0, 0, 0, 0, 0, 0, 0, 0, 0, 0, 0, 0, 0, 0, 0, 0, 0, 0, 0, 0, 0, 0,
 16:13:26.703,e36fca7b-ac85-42ee-9e80-64b80ac1a132, 2000-00-00 00:07:20.760, 39.20, 0.7822, 0.6196, 0.0107, 0.0122, 0.0132, 0.0127, 0.00, 0.00, 0.00, 0, 0, 0, 0.0, 0.0, 0.0, 1.015, -32.376, 0.782, 0.000, 0.782, 0.005, 0.794, 0.018, -4.728, 0.646, 16.580, 0.010, 1.023, 1.128, 0.620, 0.000, 0.620, 0.006, 0.634, 0.023, -15.738, 0.590, -32.204, 0.009, 2.142, 2.836, 0.011, 0.000, 0.011, 0.373, 0.025, 1.310, -0.027, 0.638, 1.418, 0.010, 0.000, 0.000, 0.000, 0, 0, 0, 0, 0, 0, 0, 0, 0, 0, 0, 0, 0, 0, 0, 0, 0, 0, 0, 0, 0, 0, 0, 0, 0, 0, 0, 0, 0, 0, 0, 0, 0, 0, 0, 0, 0, 0, 0, 0, 0, 0, 0, 0, 0,
 16:13:26.945,e36fca7b-ac85-42ee-9e80-64b80ac1a132, 2000-00-00 00:07:20.995, 39.20, 0.7822, 0.6196, 0.0107, 0.0122, 0.0127, 0.0127, 0.00, 0.00, 0.00, 0, 0, 0, 0.0, 0.0, 0.0, 1.015, 16.856, 0.782, 0.000, 0.782, 0.005, 0.794, 0.016, -13.665, 0.633, 8.428, 0.010, 1.020, -18.918, 0.620, 0.000, 0.620, 0.006, 0.632, 0.021, -9.383, 0.592, -9.459, 0.009, 2.056, 2.861, 0.011, 0.000, 0.011, 0.356, 0.024, 1.191, -0.008, 0.612, 1.430, 0.009, 0.000, 0.000, 0.000, 0, 0, 0, 0, 0, 0, 0, 0, 0, 0, 0, 0, 0, 0, 0, 0, 0, 0, 0, 0, 0, 0, 0, 0, 0, 0, 0, 0, 0, 0, 0, 0, 0, 0, 0, 0, 0, 0, 0, 0, 0, 0, 0, 0, 0,
 16:13:27.187,e36fca7b-ac85-42ee-9e80-64b80ac1a132, 2000-00-00 00:07:21.235, 39.20, 0.7822, 0.6196, 0.0107, 0.0117, 0.0122, 0.0117, 0.00, 0.00, 0.00, 0, 0, 0, 0.0, 0.0, 0.0, 1.016, -13.768, 0.782, 0.000, 0.782, 0.005, 0.795, 0.016, -8.535, 0.629, 25.884, 0.010, 1.020, 20.417, 0.620, 0.000, 0.619, 0.006, 0.632, 0.021, -6.112, 0.598, -22.560, 0.009, 1.904, 2.733, 0.011, 0.000, 0.011, 0.359, 0.021, 1.153, 0.028, 0.607, 1.366, 0.009, 0.000, 0.000, 0.000, 0, 0, 0, 0, 0, 0, 0, 0, 0, 0, 0, 0, 0, 0, 0, 0, 0, 0, 0, 0, 0, 0, 0, 0, 0, 0, 0, 0, 0, 0, 0, 0, 0, 0, 0, 0, 0, 0, 0, 0, 0, 0, 0, 0, 0,
 16:13:27.432,e36fca7b-ac85-42ee-9e80-64b80ac1a132, 2000-00-00 00:07:21.475, 39.20, 0.7822, 0.6196, 0.0107, 0.0117, 0.0127, 0.0117, 0.00, 0.00, 0.00, 0, 0, 0, 0.0, 0.0, 0.0, 1.014, -2.840, 0.782, 0.000, 0.782, 0.005, 0.793, 0.015, -1.989, 0.630, 31.348, 0.010, 1.020, 6.375, 0.620, 0.000, 0.619, 0.006, 0.632, 0.022, -12.941, 0.591, 3.188, 0.009, 2.007, 2.802, 0.011, 0.000, 0.011, 0.369, 0.023, 1.192, 0.014, 0.623, 1.401, 0.009, 0.000, 0.000, 0.000, 0, 0, 0, 0, 0, 0, 0, 0, 0, 0, 0, 0, 0, 0, 0, 0, 0, 0, 0, 0, 0, 0, 0, 0, 0, 0, 0, 0, 0, 0, 0, 0, 0, 0, 0, 0, 0, 0, 0, 0, 0, 0, 0, 0, 0,
 16:13:27.675,e36fca7b-ac85-42ee-9e80-64b80ac1a132, 2000-00-00 00:07:21.725, 39.20, 0.7822, 0.6196, 0.0107, 0.0122, 0.0132, 0.0122, 0.00, 0.00, 0.00, 0, 0, 0, 0.0, 0.0, 0.0, 1.014, -6.116, 0.782, 0.000, 0.782, 0.005, 0.794, 0.015, 3.073, 0.631, 29.710, 0.010, 1.019, -15.271, 0.620, 0.000, 0.619, 0.006, 0.632, 0.021, -8.512, 0.583, 25.132, 0.009, 1.949, 2.761, 0.011, 0.000, 0.011, 0.364, 0.022, 1.091, 0.011, 0.614, 1.380, 0.009, 0.000, 0.000, 0.000, 0, 0, 0, 0, 0, 0, 0, 0, 0, 0, 0, 0, 0, 0, 0, 0, 0, 0, 0, 0, 0, 0, 0, 0, 0, 0, 0, 0, 0, 0, 0, 0, 0, 0, 0, 0, 0, 0, 0, 0, 0, 0, 0, 0, 0,
 16:13:27.919,e36fca7b-ac85-42ee-9e80-64b80ac1a132, 2000-00-00 00:07:21.965, 39.20, 0.7822, 0.6196, 0.0107, 0.0117, 0.0127, 0.0117, 0.00, 0.00, 0.00, 0, 0, 0, 0.0, 0.0, 0.0, 1.015, -1.480, 0.782, 0.000, 0.782, 0.005, 0.794, 0.016, 4.200, 0.638, -0.740, 0.010, 1.019, -8.286, 0.620, 0.000, 0.620, 0.006, 0.632, 0.020, -18.657, 0.580, -4.143, 0.009, 2.032, 2.723, 0.011, 0.000, 0.011, 0.360, 0.023, 1.164, -0.034, 0.610, 1.361, 0.009, 0.000, 0.000, 0.000, 0, 0, 0, 0, 0, 0, 0, 0, 0, 0, 0, 0, 0, 0, 0, 0, 0, 0, 0, 0, 0, 0, 0, 0, 0, 0, 0, 0, 0, 0, 0, 0, 0, 0, 0, 0, 0, 0, 0, 0, 0, 0, 0, 0, 0,
 16:13:28.162,e36fca7b-ac85-42ee-9e80-64b80ac1a132, 2000-00-00 00:07:22.200, 39.20, 0.7822, 0.6196, 0.0107, 0.0122, 0.0127, 0.0122, 0.00, 0.00, 0.00, 0, 0, 0, 0.0, 0.0, 0.0, 1.016, 28.812, 0.782, 0.000, 0.782, 0.005, 0.795, 0.016, -16.274, 0.633, -18.362, 0.010, 1.022, 0.111, 0.620, 0.000, 0.620, 0.005, 0.634, 0.023, -23.370, 0.572, 0.056, 0.009, 2.084, 2.799, 0.011, 0.000, 0.011, 0.368, 0.024, 1.256, 0.005, 0.626, 1.399, 0.009, 0.000, 0.000, 0.000, 0, 0, 0, 0, 0, 0, 0, 0, 0, 0, 0, 0, 0, 0, 0, 0, 0, 0, 0, 0, 0, 0, 0, 0, 0, 0, 0, 0, 0, 0, 0, 0, 0, 0, 0, 0, 0, 0, 0, 0, 0, 0, 0, 0, 0,
 16:13:28.407,e36fca7b-ac85-42ee-9e80-64b80ac1a132, 2000-00-00 00:07:22.445, 39.20, 0.7822, 0.6196, 0.0107, 0.0117, 0.0132, 0.0127, 0.00, 0.00, 0.00, 0, 0, 0, 0.0, 0.0, 0.0, 1.015, 30.940, 0.782, 0.000, 0.782, 0.005, 0.795, 0.016, -4.803, 0.639, 15.470, 0.010, 1.021, 13.472, 0.620, 0.000, 0.620, 0.006, 0.633, 0.022, -13.742, 0.580, 6.736, 0.009, 2.000, 2.838, 0.011, 0.000, 0.011, 0.362, 0.023, 1.207, 0.014, 0.621, 1.419, 0.009, 0.000, 0.000, 0.000, 0, 0, 0, 0, 0, 0, 0, 0, 0, 0, 0, 0, 0, 0, 0, 0, 0, 0, 0, 0, 0, 0, 0, 0, 0, 0, 0, 0, 0, 0, 0, 0, 0, 0, 0, 0, 0, 0, 0, 0, 0, 0, 0, 0, 0,
 16:13:28.652,e36fca7b-ac85-42ee-9e80-64b80ac1a132, 2000-00-00 00:07:22.690, 39.20, 0.7822, 0.6196, 0.0107, 0.0117, 0.0132, 0.0122, 0.00, 0.00, 0.00, 0, 0, 0, 0.0, 0.0, 0.0, 1.015, 26.804, 0.782, 0.000, 0.782, 0.005, 0.794, 0.016, -5.945, 0.628, 13.402, 0.010, 1.019, 2.020, 0.620, 0.000, 0.619, 0.006, 0.632, 0.023, -4.702, 0.586, -31.758, 0.009, 1.968, 2.898, 0.011, 0.000, 0.011, 0.366, 0.022, 1.229, 0.024, 0.625, 1.449, 0.009, 0.000, 0.000, 0.000, 0, 0, 0, 0, 0, 0, 0, 0, 0, 0, 0, 0, 0, 0, 0, 0, 0, 0, 0, 0, 0, 0, 0, 0, 0, 0, 0, 0, 0, 0, 0, 0, 0, 0, 0, 0, 0, 0, 0, 0, 0, 0, 0, 0, 0,
 16:13:28.899,e36fca7b-ac85-42ee-9e80-64b80ac1a132, 2000-00-00 00:07:22.935, 39.20, 0.7822, 0.6196, 0.0107, 0.0122, 0.0127, 0.0122, 0.00, 0.00, 0.00, 0, 0, 0, 0.0, 0.0, 0.0, 1.017, 32.340, 0.782, 0.000, 0.782, 0.005, 0.796, 0.017, -18.229, 0.632, -16.598, 0.010, 1.019, -1.097, 0.620, 0.000, 0.620, 0.006, 0.632, 0.020, -18.017, 0.591, -0.548, 0.009, 1.905, 2.840, 0.011, 0.000, 0.011, 0.359, 0.021, 1.288, 0.029, 0.609, 1.420, 0.009, 0.000, 0.000, 0.000, 0, 0, 0, 0, 0, 0, 0, 0, 0, 0, 0, 0, 0, 0, 0, 0, 0, 0, 0, 0, 0, 0, 0, 0, 0, 0, 0, 0, 0, 0, 0, 0, 0, 0, 0, 0, 0, 0, 0, 0, 0, 0, 0, 0, 0,
 16:13:29.144,e36fca7b-ac85-42ee-9e80-64b80ac1a132, 2000-00-00 00:07:23.175, 39.20, 0.7822, 0.6196, 0.0107, 0.0122, 0.0122, 0.0122, 0.00, 0.00, 0.00, 0, 0, 0, 0.0, 0.0, 0.0, 1.014, 0.808, 0.782, 0.000, 0.782, 0.005, 0.794, 0.015, -14.779, 0.639, 0.404, 0.010, 1.019, -7.208, 0.620, 0.000, 0.620, 0.006, 0.632, 0.020, -12.129, 0.584, 29.164, 0.009, 2.012, 2.812, 0.011, 0.000, 0.011, 0.362, 0.023, 1.206, -0.041, 0.613, 1.406, 0.009, 0.000, 0.000, 0.000, 0, 0, 0, 0, 0, 0, 0, 0, 0, 0, 0, 0, 0, 0, 0, 0, 0, 0, 0, 0, 0, 0, 0, 0, 0, 0, 0, 0, 0, 0, 0, 0, 0, 0, 0, 0, 0, 0, 0, 0, 0, 0, 0, 0, 0,
 16:13:29.388,e36fca7b-ac85-42ee-9e80-64b80ac1a132, 2000-00-00 00:07:23.420, 39.20, 0.7822, 0.6196, 0.0107, 0.0117, 0.0122, 0.0127, 0.00, 0.00, 0.00, 0, 0, 0, 0.0, 0.0, 0.0, 1.014, 20.012, 0.782, 0.000, 0.782, 0.005, 0.793, 0.015, -0.821, 0.622, -22.762, 0.009, 1.020, -4.334, 0.620, 0.000, 0.620, 0.006, 0.633, 0.020, -21.037, 0.584, 30.601, 0.009, 2.011, 2.782, 0.011, 0.000, 0.011, 0.362, 0.023, 1.156, -0.046, 0.618, 1.391, 0.009, 0.000, 0.000, 0.000, 0, 0, 0, 0, 0, 0, 0, 0, 0, 0, 0, 0, 0, 0, 0, 0, 0, 0, 0, 0, 0, 0, 0, 0, 0, 0, 0, 0, 0, 0, 0, 0, 0, 0, 0, 0, 0, 0, 0, 0, 0, 0, 0, 0, 0,
 16:13:29.632,e36fca7b-ac85-42ee-9e80-64b80ac1a132, 2000-00-00 00:07:23.665, 39.20, 0.7822, 0.6196, 0.0107, 0.0117, 0.0122, 0.0122, 0.00, 0.00, 0.00, 0, 0, 0, 0.0, 0.0, 0.0, 1.014, 3.112, 0.782, 0.000, 0.782, 0.005, 0.793, 0.016, -7.252, 0.625, -31.212, 0.009, 1.021, -32.107, 0.620, 0.000, 0.620, 0.006, 0.633, 0.021, -18.087, 0.598, 16.715, 0.009, 2.038, 2.880, 0.011, 0.000, 0.011, 0.358, 0.023, 1.174, -0.024, 0.614, 1.440, 0.009, 0.000, 0.000, 0.000, 0, 0, 0, 0, 0, 0, 0, 0, 0, 0, 0, 0, 0, 0, 0, 0, 0, 0, 0, 0, 0, 0, 0, 0, 0, 0, 0, 0, 0, 0, 0, 0, 0, 0, 0, 0, 0, 0, 0, 0, 0, 0, 0, 0, 0,
 16:13:29.876,e36fca7b-ac85-42ee-9e80-64b80ac1a132, 2000-00-00 00:07:23.910, 39.20, 0.7822, 0.6196, 0.0107, 0.0122, 0.0127, 0.0127, 0.00, 0.00, 0.00, 0, 0, 0, 0.0, 0.0, 0.0, 1.014, 12.604, 0.782, 0.000, 0.782, 0.005, 0.794, 0.015, 1.324, 0.624, -26.466, 0.009, 1.022, 17.684, 0.620, 0.000, 0.620, 0.006, 0.634, 0.023, -11.636, 0.585, 8.842, 0.009, 2.045, 2.825, 0.011, 0.000, 0.011, 0.365, 0.023, 1.195, 0.003, 0.624, 1.412, 0.009, 0.000, 0.000, 0.000, 0, 0, 0, 0, 0, 0, 0, 0, 0, 0, 0, 0, 0, 0, 0, 0, 0, 0, 0, 0, 0, 0, 0, 0, 0, 0, 0, 0, 0, 0, 0, 0, 0, 0, 0, 0, 0, 0, 0, 0, 0, 0, 0, 0, 0,
 16:13:30.119,e36fca7b-ac85-42ee-9e80-64b80ac1a132, 2000-00-00 00:07:24.145, 39.20, 0.7822, 0.6196, 0.0107, 0.0122, 0.0127, 0.0127, 0.00, 0.00, 0.00, 0, 0, 0, 0.0, 0.0, 0.0, 1.016, -5.964, 0.782, 0.000, 0.782, 0.005, 0.795, 0.017, -14.878, 0.642, -2.982, 0.010, 1.019, -9.656, 0.620, 0.000, 0.620, 0.006, 0.632, 0.022, -7.582, 0.583, -4.828, 0.009, 2.150, 2.932, 0.011, 0.000, 0.011, 0.361, 0.024, 1.315, 0.006, 0.614, 1.466, 0.009, 0.000, 0.000, 0.000, 0, 0, 0, 0, 0, 0, 0, 0, 0, 0, 0, 0, 0, 0, 0, 0, 0, 0, 0, 0, 0, 0, 0, 0, 0, 0, 0, 0, 0, 0, 0, 0, 0, 0, 0, 0, 0, 0, 0, 0, 0, 0, 0, 0, 0,
 16:13:30.362,e36fca7b-ac85-42ee-9e80-64b80ac1a132, 2000-00-00 00:07:24.390, 39.20, 0.7822, 0.6196, 0.0107, 0.0122, 0.0127, 0.0127, 0.00, 0.00, 0.00, 0, 0, 0, 0.0, 0.0, 0.0, 1.015, -4.232, 0.782, 0.000, 0.782, 0.005, 0.794, 0.016, -3.767, 0.644, 30.652, 0.010, 1.022, -31.967, 0.620, 0.000, 0.620, 0.005, 0.634, 0.022, -12.871, 0.577, 16.785, 0.009, 2.013, 2.834, 0.011, 0.000, 0.011, 0.358, 0.023, 1.176, 0.033, 0.608, 1.417, 0.009, 0.000, 0.000, 0.000, 0, 0, 0, 0, 0, 0, 0, 0, 0, 0, 0, 0, 0, 0, 0, 0, 0, 0, 0, 0, 0, 0, 0, 0, 0, 0, 0, 0, 0, 0, 0, 0, 0, 0, 0, 0, 0, 0, 0, 0, 0, 0, 0, 0, 0,
 16:13:30.605,e36fca7b-ac85-42ee-9e80-64b80ac1a132, 2000-00-00 00:07:24.630, 39.20, 0.7822, 0.6196, 0.0107, 0.0122, 0.0127, 0.0122, 0.00, 0.00, 0.00, 0, 0, 0, 0.0, 0.0, 0.0, 1.016, -4.928, 0.782, 0.000, 0.782, 0.005, 0.795, 0.016, -0.538, 0.621, 30.304, 0.009, 1.021, -28.840, 0.620, 0.000, 0.620, 0.005, 0.633, 0.022, -19.686, 0.573, 18.348, 0.009, 2.006, 2.815, 0.011, 0.000, 0.011, 0.358, 0.023, 1.159, 0.010, 0.617, 1.407, 0.009, 0.000, 0.000, 0.000, 0, 0, 0, 0, 0, 0, 0, 0, 0, 0, 0, 0, 0, 0, 0, 0, 0, 0, 0, 0, 0, 0, 0, 0, 0, 0, 0, 0, 0, 0, 0, 0, 0, 0, 0, 0, 0, 0, 0, 0, 0, 0, 0, 0, 0,
 16:13:30.848,e36fca7b-ac85-42ee-9e80-64b80ac1a132, 2000-00-00 00:07:24.875, 39.20, 0.7822, 0.6196, 0.0107, 0.0112, 0.0127, 0.0122, 0.00, 0.00, 0.00, 0, 0, 0, 0.0, 0.0, 0.0, 1.016, -6.388, 0.782, 0.000, 0.782, 0.005, 0.795, 0.016, 0.539, 0.625, 29.574, 0.009, 1.019, -30.182, 0.620, 0.000, 0.619, 0.006, 0.632, 0.020, -13.437, 0.580, -15.091, 0.009, 2.105, 2.894, 0.011, 0.000, 0.011, 0.354, 0.024, 1.262, -0.038, 0.605, 1.447, 0.009, 0.000, 0.000, 0.000, 0, 0, 0, 0, 0, 0, 0, 0, 0, 0, 0, 0, 0, 0, 0, 0, 0, 0, 0, 0, 0, 0, 0, 0, 0, 0, 0, 0, 0, 0, 0, 0, 0, 0, 0, 0, 0, 0, 0, 0, 0, 0, 0, 0, 0,
 16:13:31.092,e36fca7b-ac85-42ee-9e80-64b80ac1a132, 2000-00-00 00:07:25.110, 39.20, 0.7822, 0.6196, 0.0107, 0.0117, 0.0132, 0.0122, 0.00, 0.00, 0.00, 0, 0, 0, 0.0, 0.0, 0.0, 1.015, 1.700, 0.782, 0.000, 0.782, 0.005, 0.794, 0.016, -2.118, 0.636, 0.850, 0.010, 1.021, -4.888, 0.620, 0.000, 0.620, 0.006, 0.633, 0.022, -16.878, 0.589, -2.444, 0.009, 1.989, 2.856, 0.011, 0.000, 0.011, 0.350, 0.023, 1.115, -0.061, 0.604, 1.428, 0.009, 0.000, 0.000, 0.000, 0, 0, 0, 0, 0, 0, 0, 0, 0, 0, 0, 0, 0, 0, 0, 0, 0, 0, 0, 0, 0, 0, 0, 0, 0, 0, 0, 0, 0, 0, 0, 0, 0, 0, 0, 0, 0, 0, 0, 0, 0, 0, 0, 0, 0,
 16:13:31.337,e36fca7b-ac85-42ee-9e80-64b80ac1a132, 2000-00-00 00:07:25.355, 39.20, 0.7822, 0.6196, 0.0107, 0.0117, 0.0127, 0.0117, 0.00, 0.00, 0.00, 0, 0, 0, 0.0, 0.0, 0.0, 1.015, 25.536, 0.782, 0.000, 0.782, 0.005, 0.794, 0.015, -3.540, 0.620, 12.768, 0.009, 1.021, 8.782, 0.620, 0.000, 0.620, 0.006, 0.633, 0.021, -16.046, 0.588, -28.377, 0.009, 1.943, 2.750, 0.011, 0.000, 0.011, 0.348, 0.022, 1.101, 0.004, 0.606, 1.375, 0.009, 0.000, 0.000, 0.000, 0, 0, 0, 0, 0, 0, 0, 0, 0, 0, 0, 0, 0, 0, 0, 0, 0, 0, 0, 0, 0, 0, 0, 0, 0, 0, 0, 0, 0, 0, 0, 0, 0, 0, 0, 0, 0, 0, 0, 0, 0, 0, 0, 0, 0,
 16:13:31.580,e36fca7b-ac85-42ee-9e80-64b80ac1a132, 2000-00-00 00:07:25.600, 39.20, 0.7822, 0.6196, 0.0107, 0.0112, 0.0132, 0.0122, 0.00, 0.00, 0.00, 0, 0, 0, 0.0, 0.0, 0.0, 1.014, 1.816, 0.782, 0.000, 0.782, 0.005, 0.793, 0.015, -7.908, 0.627, 0.908, 0.009, 1.022, -23.440, 0.620, 0.000, 0.620, 0.006, 0.634, 0.022, -12.331, 0.602, 21.048, 0.009, 2.034, 2.880, 0.011, 0.000, 0.011, 0.361, 0.023, 1.225, 0.018, 0.617, 1.440, 0.009, 0.000, 0.000, 0.000, 0, 0, 0, 0, 0, 0, 0, 0, 0, 0, 0, 0, 0, 0, 0, 0, 0, 0, 0, 0, 0, 0, 0, 0, 0, 0, 0, 0, 0, 0, 0, 0, 0, 0, 0, 0, 0, 0, 0, 0, 0, 0, 0, 0, 0,
 16:13:31.823,e36fca7b-ac85-42ee-9e80-64b80ac1a132, 2000-00-00 00:07:25.840, 39.20, 0.7822, 0.6196, 0.0107, 0.0117, 0.0127, 0.0127, 0.00, 0.00, 0.00, 0, 0, 0, 0.0, 0.0, 0.0, 1.015, -17.316, 0.782, 0.000, 0.782, 0.005, 0.794, 0.017, -20.619, 0.636, -8.658, 0.010, 1.022, -20.317, 0.620, 0.000, 0.620, 0.005, 0.633, 0.022, -5.401, 0.578, -10.159, 0.009, 2.017, 2.867, 0.011, 0.000, 0.011, 0.369, 0.023, 1.224, 0.020, 0.626, 1.433, 0.009, 0.000, 0.000, 0.000, 0, 0, 0, 0, 0, 0, 0, 0, 0, 0, 0, 0, 0, 0, 0, 0, 0, 0, 0, 0, 0, 0, 0, 0, 0, 0, 0, 0, 0, 0, 0, 0, 0, 0, 0, 0, 0, 0, 0, 0, 0, 0, 0, 0, 0,
 16:13:32.068,e36fca7b-ac85-42ee-9e80-64b80ac1a132, 2000-00-00 00:07:26.080, 39.20, 0.7822, 0.6196, 0.0107, 0.0122, 0.0127, 0.0127, 0.00, 0.00, 0.00, 0, 0, 0, 0.0, 0.0, 0.0, 1.014, -14.048, 0.782, 0.000, 0.782, 0.005, 0.794, 0.016, 0.048, 0.628, -7.024, 0.010, 1.021, 29.841, 0.620, 0.000, 0.620, 0.006, 0.633, 0.021, -10.810, 0.583, -17.847, 0.009, 2.124, 2.963, 0.011, 0.000, 0.011, 0.360, 0.024, 1.304, -0.059, 0.609, 1.481, 0.009, 0.000, 0.000, 0.000, 0, 0, 0, 0, 0, 0, 0, 0, 0, 0, 0, 0, 0, 0, 0, 0, 0, 0, 0, 0, 0, 0, 0, 0, 0, 0, 0, 0, 0, 0, 0, 0, 0, 0, 0, 0, 0, 0, 0, 0, 0, 0, 0, 0, 0,
 16:13:32.311,e36fca7b-ac85-42ee-9e80-64b80ac1a132, 2000-00-00 00:07:26.325, 39.20, 0.7822, 0.6196, 0.0107, 0.0117, 0.0127, 0.0132, 0.00, 0.00, 0.00, 0, 0, 0, 0.0, 0.0, 0.0, 1.015, 15.784, 0.782, 0.000, 0.782, 0.005, 0.794, 0.015, -4.677, 0.630, 7.892, 0.010, 1.021, 18.273, 0.620, 0.000, 0.620, 0.006, 0.633, 0.021, -7.322, 0.587, 9.136, 0.009, 2.175, 2.944, 0.011, 0.000, 0.011, 0.360, 0.025, 1.335, -0.061, 0.608, 1.472, 0.009, 0.000, 0.000, 0.000, 0, 0, 0, 0, 0, 0, 0, 0, 0, 0, 0, 0, 0, 0, 0, 0, 0, 0, 0, 0, 0, 0, 0, 0, 0, 0, 0, 0, 0, 0, 0, 0, 0, 0, 0, 0, 0, 0, 0, 0, 0, 0, 0, 0, 0,
 16:13:32.555,e36fca7b-ac85-42ee-9e80-64b80ac1a132, 2000-00-00 00:07:26.565, 39.20, 0.7822, 0.6196, 0.0107, 0.0117, 0.0122, 0.0132, 0.00, 0.00, 0.00, 0, 0, 0, 0.0, 0.0, 0.0, 1.016, 14.324, 0.782, 0.000, 0.782, 0.005, 0.795, 0.017, -8.302, 0.628, 7.162, 0.010, 1.019, 17.334, 0.620, 0.000, 0.620, 0.006, 0.631, 0.021, -10.303, 0.596, -24.101, 0.009, 2.249, 2.975, 0.011, 0.000, 0.011, 0.362, 0.026, 1.411, -0.054, 0.615, 1.487, 0.009, 0.000, 0.000, 0.000, 0, 0, 0, 0, 0, 0, 0, 0, 0, 0, 0, 0, 0, 0, 0, 0, 0, 0, 0, 0, 0, 0, 0, 0, 0, 0, 0, 0, 0, 0, 0, 0, 0, 0, 0, 0, 0, 0, 0, 0, 0, 0, 0, 0, 0,
 16:13:32.799,e36fca7b-ac85-42ee-9e80-64b80ac1a132, 2000-00-00 00:07:26.810, 39.20, 0.7822, 0.6196, 0.0107, 0.0122, 0.0122, 0.0132, 0.00, 0.00, 0.00, 0, 0, 0, 0.0, 0.0, 0.0, 1.017, 24.756, 0.782, 0.000, 0.782, 0.005, 0.796, 0.017, -9.626, 0.625, 12.378, 0.009, 1.019, 10.822, 0.620, 0.000, 0.619, 0.006, 0.632, 0.021, -7.926, 0.595, -27.357, 0.009, 2.040, 2.860, 0.011, 0.000, 0.011, 0.361, 0.023, 1.340, 0.011, 0.611, 1.430, 0.009, 0.000, 0.000, 0.000, 0, 0, 0, 0, 0, 0, 0, 0, 0, 0, 0, 0, 0, 0, 0, 0, 0, 0, 0, 0, 0, 0, 0, 0, 0, 0, 0, 0, 0, 0, 0, 0, 0, 0, 0, 0, 0, 0, 0, 0, 0, 0, 0, 0, 0,
 16:13:33.042,e36fca7b-ac85-42ee-9e80-64b80ac1a132, 2000-00-00 00:07:27.050, 39.20, 0.7822, 0.6196, 0.0107, 0.0127, 0.0122, 0.0122, 0.00, 0.00, 0.00, 0, 0, 0, 0.0, 0.0, 0.0, 1.017, -31.612, 0.782, 0.000, 0.782, 0.005, 0.796, 0.017, -11.174, 0.638, -15.806, 0.010, 1.019, -19.654, 0.620, 0.000, 0.620, 0.006, 0.632, 0.020, -14.720, 0.590, 22.941, 0.009, 1.943, 2.825, 0.011, 0.000, 0.011, 0.358, 0.022, 1.141, -0.033, 0.613, 1.412, 0.009, 0.000, 0.000, 0.000, 0, 0, 0, 0, 0, 0, 0, 0, 0, 0, 0, 0, 0, 0, 0, 0, 0, 0, 0, 0, 0, 0, 0, 0, 0, 0, 0, 0, 0, 0, 0, 0, 0, 0, 0, 0, 0, 0, 0, 0, 0, 0, 0, 0, 0,
 16:13:33.285,e36fca7b-ac85-42ee-9e80-64b80ac1a132, 2000-00-00 00:07:27.290, 39.20, 0.7822, 0.6196, 0.0107, 0.0127, 0.0127, 0.0117, 0.00, 0.00, 0.00, 0, 0, 0, 0.0, 0.0, 0.0, 1.015, -3.440, 0.782, 0.000, 0.782, 0.005, 0.794, 0.017, -14.045, 0.632, 31.048, 0.010, 1.020, 4.954, 0.620, 0.000, 0.620, 0.006, 0.632, 0.020, -14.493, 0.595, 2.477, 0.009, 1.953, 2.707, 0.011, 0.000, 0.011, 0.367, 0.022, 1.137, 0.018, 0.623, 1.353, 0.009, 0.000, 0.000, 0.000, 0, 0, 0, 0, 0, 0, 0, 0, 0, 0, 0, 0, 0, 0, 0, 0, 0, 0, 0, 0, 0, 0, 0, 0, 0, 0, 0, 0, 0, 0, 0, 0, 0, 0, 0, 0, 0, 0, 0, 0, 0, 0, 0, 0, 0,
 16:13:33.528,e36fca7b-ac85-42ee-9e80-64b80ac1a132, 2000-00-00 00:07:27.535, 39.20, 0.7822, 0.6196, 0.0107, 0.0117, 0.0127, 0.0117, 0.00, 0.00, 0.00, 0, 0, 0, 0.0, 0.0, 0.0, 1.014, 30.252, 0.782, 0.000, 0.782, 0.005, 0.794, 0.017, -1.451, 0.630, 15.126, 0.010, 1.020, 23.307, 0.620, 0.000, 0.620, 0.006, 0.633, 0.023, -16.832, 0.592, -21.114, 0.009, 1.946, 2.736, 0.011, 0.000, 0.011, 0.356, 0.022, 1.099, -0.006, 0.606, 1.368, 0.009, 0.000, 0.000, 0.000, 0, 0, 0, 0, 0, 0, 0, 0, 0, 0, 0, 0, 0, 0, 0, 0, 0, 0, 0, 0, 0, 0, 0, 0, 0, 0, 0, 0, 0, 0, 0, 0, 0, 0, 0, 0, 0, 0, 0, 0, 0, 0, 0, 0, 0,
 16:13:33.770,e36fca7b-ac85-42ee-9e80-64b80ac1a132, 2000-00-00 00:07:27.775, 39.20, 0.7822, 0.6196, 0.0107, 0.0122, 0.0127, 0.0117, 0.00, 0.00, 0.00, 0, 0, 0, 0.0, 0.0, 0.0, 1.015, -18.540, 0.782, 0.000, 0.782, 0.005, 0.794, 0.016, 4.312, 0.633, 23.498, 0.010, 1.019, 14.650, 0.620, 0.000, 0.620, 0.006, 0.632, 0.021, -10.582, 0.586, -25.443, 0.009, 1.972, 2.878, 0.011, 0.000, 0.011, 0.358, 0.022, 1.227, 0.096, 0.609, 1.439, 0.009, 0.000, 0.000, 0.000, 0, 0, 0, 0, 0, 0, 0, 0, 0, 0, 0, 0, 0, 0, 0, 0, 0, 0, 0, 0, 0, 0, 0, 0, 0, 0, 0, 0, 0, 0, 0, 0, 0, 0, 0, 0, 0, 0, 0, 0, 0, 0, 0, 0, 0,
 16:13:34.015,e36fca7b-ac85-42ee-9e80-64b80ac1a132, 2000-00-00 00:07:28.020, 39.20, 0.7822, 0.6196, 0.0107, 0.0117, 0.0127, 0.0117, 0.00, 0.00, 0.00, 0, 0, 0, 0.0, 0.0, 0.0, 1.015, 14.456, 0.782, 0.000, 0.782, 0.005, 0.794, 0.015, -6.234, 0.634, -25.540, 0.010, 1.019, 28.034, 0.620, 0.000, 0.619, 0.005, 0.632, 0.021, -13.676, 0.570, -18.751, 0.009, 1.967, 2.782, 0.010, 0.000, 0.011, 0.361, 0.022, 1.163, 0.010, 0.617, 1.391, 0.009, 0.000, 0.000, 0.000, 0, 0, 0, 0, 0, 0, 0, 0, 0, 0, 0, 0, 0, 0, 0, 0, 0, 0, 0, 0, 0, 0, 0, 0, 0, 0, 0, 0, 0, 0, 0, 0, 0, 0, 0, 0, 0, 0, 0, 0, 0, 0, 0, 0, 0,
 16:13:34.258,e36fca7b-ac85-42ee-9e80-64b80ac1a132, 2000-00-00 00:07:28.255, 39.20, 0.7822, 0.6196, 0.0107, 0.0117, 0.0127, 0.0122, 0.00, 0.00, 0.00, 0, 0, 0, 0.0, 0.0, 0.0, 1.016, -0.704, 0.782, 0.000, 0.782, 0.005, 0.795, 0.016, -4.866, 0.622, -0.352, 0.009, 1.020, 17.044, 0.620, 0.000, 0.620, 0.006, 0.632, 0.021, -8.282, 0.584, -24.246, 0.009, 2.039, 2.813, 0.010, 0.000, 0.011, 0.362, 0.023, 1.187, -0.041, 0.617, 1.406, 0.009, 0.000, 0.000, 0.000, 0, 0, 0, 0, 0, 0, 0, 0, 0, 0, 0, 0, 0, 0, 0, 0, 0, 0, 0, 0, 0, 0, 0, 0, 0, 0, 0, 0, 0, 0, 0, 0, 0, 0, 0, 0, 0, 0, 0, 0, 0, 0, 0, 0, 0,
 16:13:34.501,e36fca7b-ac85-42ee-9e80-64b80ac1a132, 2000-00-00 00:07:28.500, 39.20, 0.7822, 0.6196, 0.0107, 0.0122, 0.0122, 0.0117, 0.00, 0.00, 0.00, 0, 0, 0, 0.0, 0.0, 0.0, 1.016, 21.744, 0.782, 0.000, 0.782, 0.005, 0.795, 0.016, -6.188, 0.634, -21.896, 0.010, 1.020, -28.023, 0.620, 0.000, 0.620, 0.006, 0.632, 0.021, -2.661, 0.584, -14.012, 0.009, 1.964, 2.791, 0.010, 0.000, 0.011, 0.360, 0.022, 1.136, 0.081, 0.611, 1.395, 0.009, 0.000, 0.000, 0.000, 0, 0, 0, 0, 0, 0, 0, 0, 0, 0, 0, 0, 0, 0, 0, 0, 0, 0, 0, 0, 0, 0, 0, 0, 0, 0, 0, 0, 0, 0, 0, 0, 0, 0, 0, 0, 0, 0, 0, 0, 0, 0, 0, 0, 0,
 16:13:34.745,e36fca7b-ac85-42ee-9e80-64b80ac1a132, 2000-00-00 00:07:28.745, 39.20, 0.7822, 0.6196, 0.0107, 0.0122, 0.0127, 0.0122, 0.00, 0.00, 0.00, 0, 0, 0, 0.0, 0.0, 0.0, 1.015, -29.300, 0.782, 0.000, 0.782, 0.005, 0.795, 0.016, 4.823, 0.623, 18.118, 0.009, 1.022, -2.868, 0.620, 0.000, 0.620, 0.006, 0.633, 0.022, -8.640, 0.598, 31.334, 0.009, 2.009, 2.816, 0.010, 0.000, 0.011, 0.366, 0.023, 1.308, 0.052, 0.627, 1.408, 0.009, 0.000, 0.000, 0.000, 0, 0, 0, 0, 0, 0, 0, 0, 0, 0, 0, 0, 0, 0, 0, 0, 0, 0, 0, 0, 0, 0, 0, 0, 0, 0, 0, 0, 0, 0, 0, 0, 0, 0, 0, 0, 0, 0, 0, 0, 0, 0, 0, 0, 0,
 16:13:34.990,e36fca7b-ac85-42ee-9e80-64b80ac1a132, 2000-00-00 00:07:28.985, 39.20, 0.7822, 0.6196, 0.0107, 0.0117, 0.0132, 0.0127, 0.00, 0.00, 0.00, 0, 0, 0, 0.0, 0.0, 0.0, 1.014, 14.832, 0.782, 0.000, 0.782, 0.005, 0.793, 0.015, 2.415, 0.633, -25.352, 0.010, 1.020, -22.556, 0.620, 0.000, 0.619, 0.006, 0.632, 0.022, -0.387, 0.591, -11.278, 0.009, 1.953, 2.809, 0.011, 0.000, 0.011, 0.349, 0.023, 1.184, -0.011, 0.614, 1.404, 0.009, 0.000, 0.000, 0.000, 0, 0, 0, 0, 0, 0, 0, 0, 0, 0, 0, 0, 0, 0, 0, 0, 0, 0, 0, 0, 0, 0, 0, 0, 0, 0, 0, 0, 0, 0, 0, 0, 0, 0, 0, 0, 0, 0, 0, 0, 0, 0, 0, 0, 0,
 16:13:35.234,e36fca7b-ac85-42ee-9e80-64b80ac1a132, 2000-00-00 00:07:29.225, 39.20, 0.7822, 0.6196, 0.0107, 0.0117, 0.0127, 0.0117, 0.00, 0.00, 0.00, 0, 0, 0, 0.0, 0.0, 0.0, 1.014, -25.948, 0.782, 0.000, 0.782, 0.005, 0.793, 0.015, 5.084, 0.640, 19.794, 0.010, 1.020, -28.904, 0.620, 0.000, 0.620, 0.006, 0.632, 0.021, -11.411, 0.596, 18.316, 0.009, 1.900, 2.668, 0.011, 0.000, 0.011, 0.350, 0.022, 1.038, 0.019, 0.607, 1.334, 0.009, 0.000, 0.000, 0.000, 0, 0, 0, 0, 0, 0, 0, 0, 0, 0, 0, 0, 0, 0, 0, 0, 0, 0, 0, 0, 0, 0, 0, 0, 0, 0, 0, 0, 0, 0, 0, 0, 0, 0, 0, 0, 0, 0, 0, 0, 0, 0, 0, 0, 0,
 16:13:35.478,e36fca7b-ac85-42ee-9e80-64b80ac1a132, 2000-00-00 00:07:29.470, 39.20, 0.7822, 0.6196, 0.0107, 0.0117, 0.0127, 0.0117, 0.00, 0.00, 0.00, 0, 0, 0, 0.0, 0.0, 0.0, 1.015, 29.084, 0.782, 0.000, 0.782, 0.005, 0.794, 0.016, -11.783, 0.649, -18.226, 0.010, 1.019, 16.353, 0.620, 0.000, 0.620, 0.006, 0.632, 0.022, -14.713, 0.589, 8.177, 0.009, 1.947, 2.800, 0.011, 0.000, 0.011, 0.350, 0.023, 1.082, 0.033, 0.613, 1.400, 0.009, 0.000, 0.000, 0.000, 0, 0, 0, 0, 0, 0, 0, 0, 0, 0, 0, 0, 0, 0, 0, 0, 0, 0, 0, 0, 0, 0, 0, 0, 0, 0, 0, 0, 0, 0, 0, 0, 0, 0, 0, 0, 0, 0, 0, 0, 0, 0, 0, 0, 0,
 16:13:35.723,e36fca7b-ac85-42ee-9e80-64b80ac1a132, 2000-00-00 00:07:29.715, 39.21, 0.7822, 0.6196, 0.0107, 0.0117, 0.0122, 0.0122, 0.00, 0.00, 0.00, 0, 0, 0, 0.0, 0.0, 0.0, 1.015, 31.060, 0.782, 0.000, 0.782, 0.005, 0.795, 0.016, -7.273, 0.629, -17.238, 0.010, 1.019, -23.849, 0.620, 0.000, 0.620, 0.006, 0.632, 0.021, -13.557, 0.600, -11.924, 0.009, 2.081, 2.904, 0.011, 0.000, 0.012, 0.357, 0.024, 1.212, -0.023, 0.629, 1.452, 0.010, 0.000, 0.000, 0.000, 0, 0, 0, 0, 0, 0, 0, 0, 0, 0, 0, 0, 0, 0, 0, 0, 0, 0, 0, 0, 0, 0, 0, 0, 0, 0, 0, 0, 0, 0, 0, 0, 0, 0, 0, 0, 0, 0, 0, 0, 0, 0, 0, 0, 0,
 16:13:35.967,e36fca7b-ac85-42ee-9e80-64b80ac1a132, 2000-00-00 00:07:29.960, 39.20, 0.7822, 0.6196, 0.0107, 0.0117, 0.0127, 0.0122, 0.00, 0.00, 0.00, 0, 0, 0, 0.0, 0.0, 0.0, 1.015, 19.388, 0.782, 0.000, 0.782, 0.005, 0.794, 0.016, 10.297, 0.630, -23.074, 0.010, 1.020, 4.938, 0.620, 0.000, 0.620, 0.006, 0.632, 0.021, -10.928, 0.593, -30.299, 0.009, 2.095, 2.819, 0.011, 0.000, 0.011, 0.357, 0.024, 1.225, -0.068, 0.620, 1.409, 0.009, 0.000, 0.000, 0.000, 0, 0, 0, 0, 0, 0, 0, 0, 0, 0, 0, 0, 0, 0, 0, 0, 0, 0, 0, 0, 0, 0, 0, 0, 0, 0, 0, 0, 0, 0, 0, 0, 0, 0, 0, 0, 0, 0, 0, 0, 0, 0, 0, 0, 0,
 16:13:36.209,e36fca7b-ac85-42ee-9e80-64b80ac1a132, 2000-00-00 00:07:30.195, 39.20, 0.7822, 0.6196, 0.0107, 0.0117, 0.0132, 0.0127, 0.00, 0.00, 0.00, 0, 0, 0, 0.0, 0.0, 0.0, 1.017, -31.044, 0.782, 0.000, 0.782, 0.005, 0.795, 0.017, -5.992, 0.639, -15.522, 0.010, 1.021, 3.144, 0.620, 0.000, 0.620, 0.006, 0.633, 0.024, -9.903, 0.600, -31.196, 0.009, 2.001, 2.841, 0.011, 0.000, 0.011, 0.357, 0.023, 1.216, 0.027, 0.612, 1.420, 0.009, 0.000, 0.000, 0.000, 0, 0, 0, 0, 0, 0, 0, 0, 0, 0, 0, 0, 0, 0, 0, 0, 0, 0, 0, 0, 0, 0, 0, 0, 0, 0, 0, 0, 0, 0, 0, 0, 0, 0, 0, 0, 0, 0, 0, 0, 0, 0, 0, 0, 0,
 16:13:36.452,e36fca7b-ac85-42ee-9e80-64b80ac1a132, 2000-00-00 00:07:30.440, 39.20, 0.7822, 0.6196, 0.0107, 0.0122, 0.0132, 0.0127, 0.00, 0.00, 0.00, 0, 0, 0, 0.0, 0.0, 0.0, 1.017, -32.060, 0.782, 0.000, 0.782, 0.005, 0.796, 0.017, -1.435, 0.630, 16.738, 0.010, 1.019, 24.682, 0.620, 0.000, 0.620, 0.005, 0.632, 0.021, -20.039, 0.579, 12.341, 0.009, 2.071, 2.816, 0.011, 0.000, 0.011, 0.356, 0.024, 1.221, -0.042, 0.610, 1.408, 0.009, 0.000, 0.000, 0.000, 0, 0, 0, 0, 0, 0, 0, 0, 0, 0, 0, 0, 0, 0, 0, 0, 0, 0, 0, 0, 0, 0, 0, 0, 0, 0, 0, 0, 0, 0, 0, 0, 0, 0, 0, 0, 0, 0, 0, 0, 0, 0, 0, 0, 0,
 16:13:36.695,e36fca7b-ac85-42ee-9e80-64b80ac1a132, 2000-00-00 00:07:30.680, 39.20, 0.7822, 0.6196, 0.0107, 0.0122, 0.0132, 0.0127, 0.00, 0.00, 0.00, 0, 0, 0, 0.0, 0.0, 0.0, 1.014, 30.316, 0.782, 0.000, 0.782, 0.005, 0.793, 0.015, 1.810, 0.622, 15.158, 0.009, 1.020, 30.666, 0.620, 0.000, 0.620, 0.006, 0.633, 0.021, -16.967, 0.581, 15.333, 0.009, 2.119, 2.902, 0.011, 0.000, 0.011, 0.357, 0.024, 1.254, -0.069, 0.614, 1.451, 0.009, 0.000, 0.000, 0.000, 0, 0, 0, 0, 0, 0, 0, 0, 0, 0, 0, 0, 0, 0, 0, 0, 0, 0, 0, 0, 0, 0, 0, 0, 0, 0, 0, 0, 0, 0, 0, 0, 0, 0, 0, 0, 0, 0, 0, 0, 0, 0, 0, 0, 0,
 16:13:36.938,e36fca7b-ac85-42ee-9e80-64b80ac1a132, 2000-00-00 00:07:30.925, 39.20, 0.7822, 0.6196, 0.0107, 0.0117, 0.0127, 0.0127, 0.00, 0.00, 0.00, 0, 0, 0, 0.0, 0.0, 0.0, 1.014, 27.244, 0.782, 0.000, 0.782, 0.005, 0.793, 0.015, -7.852, 0.630, 13.622, 0.010, 1.020, 28.436, 0.620, 0.000, 0.620, 0.006, 0.632, 0.021, -13.740, 0.591, 14.218, 0.009, 2.136, 2.915, 0.011, 0.000, 0.011, 0.366, 0.025, 1.276, -0.029, 0.628, 1.457, 0.010, 0.000, 0.000, 0.000, 0, 0, 0, 0, 0, 0, 0, 0, 0, 0, 0, 0, 0, 0, 0, 0, 0, 0, 0, 0, 0, 0, 0, 0, 0, 0, 0, 0, 0, 0, 0, 0, 0, 0, 0, 0, 0, 0, 0, 0, 0, 0, 0, 0, 0,
 16:13:37.182,e36fca7b-ac85-42ee-9e80-64b80ac1a132, 2000-00-00 00:07:31.160, 39.20, 0.7822, 0.6196, 0.0107, 0.0117, 0.0127, 0.0122, 0.00, 0.00, 0.00, 0, 0, 0, 0.0, 0.0, 0.0, 1.013, -11.236, 0.782, 0.000, 0.782, 0.005, 0.793, 0.016, -10.864, 0.629, 27.150, 0.010, 1.021, 8.283, 0.620, 0.000, 0.620, 0.006, 0.633, 0.021, -15.383, 0.586, 4.142, 0.009, 2.139, 2.791, 0.011, 0.000, 0.011, 0.364, 0.024, 1.277, -0.019, 0.615, 1.395, 0.009, 0.000, 0.000, 0.000, 0, 0, 0, 0, 0, 0, 0, 0, 0, 0, 0, 0, 0, 0, 0, 0, 0, 0, 0, 0, 0, 0, 0, 0, 0, 0, 0, 0, 0, 0, 0, 0, 0, 0, 0, 0, 0, 0, 0, 0, 0, 0, 0, 0, 0,
 16:13:37.425,e36fca7b-ac85-42ee-9e80-64b80ac1a132, 2000-00-00 00:07:31.405, 39.20, 0.7822, 0.6196, 0.0107, 0.0122, 0.0127, 0.0122, 0.00, 0.00, 0.00, 0, 0, 0, 0.0, 0.0, 0.0, 1.015, -16.088, 0.782, 0.000, 0.782, 0.005, 0.794, 0.016, -1.736, 0.632, 24.724, 0.010, 1.020, 10.349, 0.620, 0.000, 0.620, 0.005, 0.633, 0.021, -17.407, 0.578, 5.175, 0.009, 2.026, 2.897, 0.011, 0.000, 0.011, 0.362, 0.023, 1.195, 0.005, 0.615, 1.448, 0.009, 0.000, 0.000, 0.000, 0, 0, 0, 0, 0, 0, 0, 0, 0, 0, 0, 0, 0, 0, 0, 0, 0, 0, 0, 0, 0, 0, 0, 0, 0, 0, 0, 0, 0, 0, 0, 0, 0, 0, 0, 0, 0, 0, 0, 0, 0, 0, 0, 0, 0,
 16:13:37.667,e36fca7b-ac85-42ee-9e80-64b80ac1a132, 2000-00-00 00:07:31.650, 39.20, 0.7822, 0.6196, 0.0107, 0.0117, 0.0127, 0.0122, 0.00, 0.00, 0.00, 0, 0, 0, 0.0, 0.0, 0.0, 1.015, -15.464, 0.782, 0.000, 0.782, 0.005, 0.794, 0.016, -5.945, 0.640, 25.036, 0.010, 1.020, 0.763, 0.620, 0.000, 0.620, 0.005, 0.632, 0.021, -13.082, 0.566, 0.382, 0.009, 2.001, 2.905, 0.011, 0.000, 0.011, 0.364, 0.022, 1.183, 0.005, 0.613, 1.452, 0.009, 0.000, 0.000, 0.000, 0, 0, 0, 0, 0, 0, 0, 0, 0, 0, 0, 0, 0, 0, 0, 0, 0, 0, 0, 0, 0, 0, 0, 0, 0, 0, 0, 0, 0, 0, 0, 0, 0, 0, 0, 0, 0, 0, 0, 0, 0, 0, 0, 0, 0,
 16:13:37.910,e36fca7b-ac85-42ee-9e80-64b80ac1a132, 2000-00-00 00:07:31.890, 39.20, 0.7822, 0.6196, 0.0107, 0.0117, 0.0127, 0.0127, 0.00, 0.00, 0.00, 0, 0, 0, 0.0, 0.0, 0.0, 1.014, -28.516, 0.782, 0.000, 0.782, 0.005, 0.793, 0.015, -8.287, 0.634, -14.258, 0.010, 1.020, -1.438, 0.620, 0.000, 0.620, 0.006, 0.632, 0.021, -12.319, 0.588, -0.719, 0.009, 2.057, 2.873, 0.011, 0.000, 0.011, 0.359, 0.023, 1.192, -0.087, 0.611, 1.436, 0.009, 0.000, 0.000, 0.000, 0, 0, 0, 0, 0, 0, 0, 0, 0, 0, 0, 0, 0, 0, 0, 0, 0, 0, 0, 0, 0, 0, 0, 0, 0, 0, 0, 0, 0, 0, 0, 0, 0, 0, 0, 0, 0, 0, 0, 0, 0, 0, 0, 0, 0,
 16:13:38.152,e36fca7b-ac85-42ee-9e80-64b80ac1a132, 2000-00-00 00:07:32.125, 39.20, 0.7822, 0.6196, 0.0107, 0.0122, 0.0127, 0.0127, 0.00, 0.00, 0.00, 0, 0, 0, 0.0, 0.0, 0.0, 1.015, -23.996, 0.782, 0.000, 0.782, 0.005, 0.794, 0.016, 0.155, 0.630, -11.998, 0.010, 1.019, 31.102, 0.620, 0.000, 0.620, 0.006, 0.632, 0.021, -11.031, 0.589, 15.551, 0.009, 1.968, 2.903, 0.011, 0.000, 0.011, 0.354, 0.022, 1.291, 0.035, 0.607, 1.451, 0.009, 0.000, 0.000, 0.000, 0, 0, 0, 0, 0, 0, 0, 0, 0, 0, 0, 0, 0, 0, 0, 0, 0, 0, 0, 0, 0, 0, 0, 0, 0, 0, 0, 0, 0, 0, 0, 0, 0, 0, 0, 0, 0, 0, 0, 0, 0, 0, 0, 0, 0,
 16:13:38.397,e36fca7b-ac85-42ee-9e80-64b80ac1a132, 2000-00-00 00:07:32.370, 39.20, 0.7822, 0.6196, 0.0107, 0.0117, 0.0132, 0.0127, 0.00, 0.00, 0.00, 0, 0, 0, 0.0, 0.0, 0.0, 1.016, -8.432, 0.782, 0.000, 0.782, 0.005, 0.795, 0.017, -3.619, 0.638, -4.216, 0.010, 1.021, 1.456, 0.620, 0.000, 0.620, 0.006, 0.633, 0.022, -9.223, 0.591, -32.040, 0.009, 2.024, 2.977, 0.011, 0.000, 0.011, 0.358, 0.023, 1.286, 0.049, 0.608, 1.488, 0.009, 0.000, 0.000, 0.000, 0, 0, 0, 0, 0, 0, 0, 0, 0, 0, 0, 0, 0, 0, 0, 0, 0, 0, 0, 0, 0, 0, 0, 0, 0, 0, 0, 0, 0, 0, 0, 0, 0, 0, 0, 0, 0, 0, 0, 0, 0, 0, 0, 0, 0,
 16:13:38.638,e36fca7b-ac85-42ee-9e80-64b80ac1a132, 2000-00-00 00:07:32.615, 39.19, 0.7822, 0.6196, 0.0107, 0.0122, 0.0127, 0.0127, 0.00, 0.00, 0.00, 0, 0, 0, 0.0, 0.0, 0.0, 1.015, -5.620, 0.782, 0.000, 0.782, 0.005, 0.795, 0.016, -2.506, 0.636, -2.810, 0.010, 1.020, -9.822, 0.620, 0.000, 0.620, 0.006, 0.632, 0.021, -11.982, 0.587, 27.857, 0.009, 1.940, 2.775, 0.011, 0.000, 0.011, 0.362, 0.022, 1.238, 0.029, 0.617, 1.387, 0.009, 0.000, 0.000, 0.000, 0, 0, 0, 0, 0, 0, 0, 0, 0, 0, 0, 0, 0, 0, 0, 0, 0, 0, 0, 0, 0, 0, 0, 0, 0, 0, 0, 0, 0, 0, 0, 0, 0, 0, 0, 0, 0, 0, 0, 0, 0, 0, 0, 0, 0,
 16:13:38.882,e36fca7b-ac85-42ee-9e80-64b80ac1a132, 2000-00-00 00:07:32.855, 39.19, 0.7822, 0.6196, 0.0107, 0.0132, 0.0127, 0.0122, 0.00, 0.00, 0.00, 0, 0, 0, 0.0, 0.0, 0.0, 1.017, 14.544, 0.782, 0.000, 0.782, 0.005, 0.796, 0.018, -0.079, 0.642, 7.272, 0.010, 1.021, -31.963, 0.620, 0.000, 0.620, 0.006, 0.633, 0.022, -17.050, 0.592, -15.981, 0.009, 1.933, 2.801, 0.011, 0.000, 0.011, 0.355, 0.023, 1.144, -0.002, 0.623, 1.400, 0.009, 0.000, 0.000, 0.000, 0, 0, 0, 0, 0, 0, 0, 0, 0, 0, 0, 0, 0, 0, 0, 0, 0, 0, 0, 0, 0, 0, 0, 0, 0, 0, 0, 0, 0, 0, 0, 0, 0, 0, 0, 0, 0, 0, 0, 0, 0, 0, 0, 0, 0,
 16:13:39.125,e36fca7b-ac85-42ee-9e80-64b80ac1a132, 2000-00-00 00:07:33.095, 39.19, 0.7822, 0.6196, 0.0107, 0.0127, 0.0132, 0.0122, 0.00, 0.00, 0.00, 0, 0, 0, 0.0, 0.0, 0.0, 1.015, 11.476, 0.782, 0.000, 0.782, 0.005, 0.795, 0.016, -6.616, 0.637, -27.030, 0.010, 1.022, -16.107, 0.620, 0.000, 0.620, 0.006, 0.634, 0.023, -18.411, 0.590, -8.053, 0.009, 2.004, 2.974, 0.011, 0.000, 0.011, 0.346, 0.023, 1.249, -0.006, 0.606, 1.487, 0.009, 0.000, 0.000, 0.000, 0, 0, 0, 0, 0, 0, 0, 0, 0, 0, 0, 0, 0, 0, 0, 0, 0, 0, 0, 0, 0, 0, 0, 0, 0, 0, 0, 0, 0, 0, 0, 0, 0, 0, 0, 0, 0, 0, 0, 0, 0, 0, 0, 0, 0,
 16:13:39.369,e36fca7b-ac85-42ee-9e80-64b80ac1a132, 2000-00-00 00:07:33.335, 39.19, 0.7822, 0.6196, 0.0107, 0.0122, 0.0127, 0.0122, 0.00, 0.00, 0.00, 0, 0, 0, 0.0, 0.0, 0.0, 1.015, -20.932, 0.782, 0.000, 0.782, 0.005, 0.794, 0.015, -9.961, 0.624, -10.466, 0.009, 1.020, -23.088, 0.620, 0.000, 0.620, 0.006, 0.633, 0.021, -3.388, 0.590, -11.544, 0.009, 1.989, 2.910, 0.011, 0.000, 0.012, 0.343, 0.023, 1.189, 0.026, 0.611, 1.455, 0.009, 0.000, 0.000, 0.000, 0, 0, 0, 0, 0, 0, 0, 0, 0, 0, 0, 0, 0, 0, 0, 0, 0, 0, 0, 0, 0, 0, 0, 0, 0, 0, 0, 0, 0, 0, 0, 0, 0, 0, 0, 0, 0, 0, 0, 0, 0, 0, 0, 0, 0,
 16:13:39.612,e36fca7b-ac85-42ee-9e80-64b80ac1a132, 2000-00-00 00:07:33.580, 39.19, 0.7822, 0.6196, 0.0107, 0.0117, 0.0127, 0.0127, 0.00, 0.00, 0.00, 0, 0, 0, 0.0, 0.0, 0.0, 1.014, -9.884, 0.782, 0.000, 0.782, 0.005, 0.794, 0.015, -4.631, 0.636, -4.942, 0.010, 1.019, -27.385, 0.620, 0.000, 0.620, 0.006, 0.632, 0.021, -6.225, 0.591, 19.075, 0.009, 2.011, 2.810, 0.011, 0.000, 0.012, 0.340, 0.024, 1.146, 0.061, 0.604, 1.405, 0.009, 0.000, 0.000, 0.000, 0, 0, 0, 0, 0, 0, 0, 0, 0, 0, 0, 0, 0, 0, 0, 0, 0, 0, 0, 0, 0, 0, 0, 0, 0, 0, 0, 0, 0, 0, 0, 0, 0, 0, 0, 0, 0, 0, 0, 0, 0, 0, 0, 0, 0,
 16:13:39.854,e36fca7b-ac85-42ee-9e80-64b80ac1a132, 2000-00-00 00:07:33.820, 39.20, 0.7822, 0.6196, 0.0107, 0.0127, 0.0132, 0.0127, 0.00, 0.00, 0.00, 0, 0, 0, 0.0, 0.0, 0.0, 1.018, 24.680, 0.782, 0.000, 0.782, 0.005, 0.797, 0.019, -7.833, 0.643, 12.340, 0.010, 1.020, 22.966, 0.620, 0.000, 0.620, 0.005, 0.632, 0.021, -22.502, 0.580, -21.285, 0.009, 2.126, 2.971, 0.011, 0.000, 0.011, 0.345, 0.025, 1.292, -0.019, 0.602, 1.485, 0.009, 0.000, 0.000, 0.000, 0, 0, 0, 0, 0, 0, 0, 0, 0, 0, 0, 0, 0, 0, 0, 0, 0, 0, 0, 0, 0, 0, 0, 0, 0, 0, 0, 0, 0, 0, 0, 0, 0, 0, 0, 0, 0, 0, 0, 0, 0, 0, 0, 0, 0,
 16:13:40.099,e36fca7b-ac85-42ee-9e80-64b80ac1a132, 2000-00-00 00:07:34.065, 39.20, 0.7822, 0.6196, 0.0107, 0.0127, 0.0122, 0.0132, 0.00, 0.00, 0.00, 0, 0, 0, 0.0, 0.0, 0.0, 1.015, 28.772, 0.782, 0.000, 0.782, 0.005, 0.794, 0.016, -9.894, 0.645, 14.386, 0.010, 1.020, 25.999, 0.620, 0.000, 0.620, 0.006, 0.632, 0.020, -22.415, 0.596, 13.000, 0.009, 2.150, 3.054, 0.011, 0.000, 0.011, 0.349, 0.025, 1.329, 0.019, 0.615, 1.527, 0.009, 0.000, 0.000, 0.000, 0, 0, 0, 0, 0, 0, 0, 0, 0, 0, 0, 0, 0, 0, 0, 0, 0, 0, 0, 0, 0, 0, 0, 0, 0, 0, 0, 0, 0, 0, 0, 0, 0, 0, 0, 0, 0, 0, 0, 0, 0, 0, 0, 0, 0,
 16:13:40.342,e36fca7b-ac85-42ee-9e80-64b80ac1a132, 2000-00-00 00:07:34.300, 39.20, 0.7822, 0.6196, 0.0107, 0.0122, 0.0122, 0.0132, 0.00, 0.00, 0.00, 0, 0, 0, 0.0, 0.0, 0.0, 1.014, -29.128, 0.782, 0.000, 0.782, 0.005, 0.793, 0.017, -0.670, 0.640, 18.204, 0.010, 1.021, 26.050, 0.620, 0.000, 0.620, 0.006, 0.633, 0.022, -17.277, 0.580, 13.025, 0.009, 2.088, 2.818, 0.011, 0.000, 0.011, 0.356, 0.024, 1.270, 0.010, 0.626, 1.409, 0.009, 0.000, 0.000, 0.000, 0, 0, 0, 0, 0, 0, 0, 0, 0, 0, 0, 0, 0, 0, 0, 0, 0, 0, 0, 0, 0, 0, 0, 0, 0, 0, 0, 0, 0, 0, 0, 0, 0, 0, 0, 0, 0, 0, 0, 0, 0, 0, 0, 0, 0,
 16:13:40.586,e36fca7b-ac85-42ee-9e80-64b80ac1a132, 2000-00-00 00:07:34.545, 39.20, 0.7822, 0.6196, 0.0107, 0.0117, 0.0122, 0.0127, 0.00, 0.00, 0.00, 0, 0, 0, 0.0, 0.0, 0.0, 1.015, -1.168, 0.782, 0.000, 0.782, 0.005, 0.794, 0.015, 2.025, 0.626, -0.584, 0.009, 1.019, 9.680, 0.620, 0.000, 0.620, 0.006, 0.632, 0.020, -11.529, 0.596, -27.928, 0.009, 1.963, 2.811, 0.011, 0.000, 0.011, 0.352, 0.023, 1.164, 0.036, 0.621, 1.405, 0.009, 0.000, 0.000, 0.000, 0, 0, 0, 0, 0, 0, 0, 0, 0, 0, 0, 0, 0, 0, 0, 0, 0, 0, 0, 0, 0, 0, 0, 0, 0, 0, 0, 0, 0, 0, 0, 0, 0, 0, 0, 0, 0, 0, 0, 0, 0, 0, 0, 0, 0,
 16:13:40.830,e36fca7b-ac85-42ee-9e80-64b80ac1a132, 2000-00-00 00:07:34.790, 39.19, 0.7822, 0.6196, 0.0107, 0.0117, 0.0127, 0.0122, 0.00, 0.00, 0.00, 0, 0, 0, 0.0, 0.0, 0.0, 1.016, -23.752, 0.782, 0.000, 0.782, 0.005, 0.795, 0.016, -2.672, 0.624, 20.892, 0.009, 1.021, -23.304, 0.620, 0.000, 0.620, 0.006, 0.633, 0.023, -11.821, 0.604, 21.116, 0.009, 1.962, 2.776, 0.011, 0.000, 0.011, 0.351, 0.023, 1.127, -0.031, 0.619, 1.388, 0.009, 0.000, 0.000, 0.000, 0, 0, 0, 0, 0, 0, 0, 0, 0, 0, 0, 0, 0, 0, 0, 0, 0, 0, 0, 0, 0, 0, 0, 0, 0, 0, 0, 0, 0, 0, 0, 0, 0, 0, 0, 0, 0, 0, 0, 0, 0, 0, 0, 0, 0,
 16:13:41.073,e36fca7b-ac85-42ee-9e80-64b80ac1a132, 2000-00-00 00:07:35.035, 39.19, 0.7822, 0.6196, 0.0107, 0.0122, 0.0132, 0.0122, 0.00, 0.00, 0.00, 0, 0, 0, 0.0, 0.0, 0.0, 1.015, 13.288, 0.782, 0.000, 0.782, 0.005, 0.794, 0.018, -6.475, 0.619, 6.644, 0.009, 1.019, 19.294, 0.620, 0.000, 0.620, 0.005, 0.632, 0.022, -11.737, 0.577, 9.647, 0.009, 1.958, 2.741, 0.011, 0.000, 0.011, 0.348, 0.023, 1.091, 0.021, 0.615, 1.370, 0.009, 0.000, 0.000, 0.000, 0, 0, 0, 0, 0, 0, 0, 0, 0, 0, 0, 0, 0, 0, 0, 0, 0, 0, 0, 0, 0, 0, 0, 0, 0, 0, 0, 0, 0, 0, 0, 0, 0, 0, 0, 0, 0, 0, 0, 0, 0, 0, 0, 0, 0,
 16:13:41.316,e36fca7b-ac85-42ee-9e80-64b80ac1a132, 2000-00-00 00:07:35.270, 39.19, 0.7822, 0.6196, 0.0107, 0.0122, 0.0127, 0.0122, 0.00, 0.00, 0.00, 0, 0, 0, 0.0, 0.0, 0.0, 1.014, -0.572, 0.782, 0.000, 0.782, 0.005, 0.794, 0.015, 6.034, 0.624, 32.482, 0.009, 1.019, 27.315, 0.620, 0.000, 0.620, 0.006, 0.632, 0.021, -16.085, 0.591, -19.110, 0.009, 1.971, 2.721, 0.011, 0.000, 0.012, 0.345, 0.023, 1.106, -0.009, 0.611, 1.360, 0.009, 0.000, 0.000, 0.000, 0, 0, 0, 0, 0, 0, 0, 0, 0, 0, 0, 0, 0, 0, 0, 0, 0, 0, 0, 0, 0, 0, 0, 0, 0, 0, 0, 0, 0, 0, 0, 0, 0, 0, 0, 0, 0, 0, 0, 0, 0, 0, 0, 0, 0,
 16:13:41.558,e36fca7b-ac85-42ee-9e80-64b80ac1a132, 2000-00-00 00:07:35.515, 39.19, 0.7822, 0.6196, 0.0107, 0.0117, 0.0127, 0.0127, 0.00, 0.00, 0.00, 0, 0, 0, 0.0, 0.0, 0.0, 1.016, 20.080, 0.782, 0.000, 0.782, 0.005, 0.795, 0.016, -11.099, 0.627, 10.040, 0.009, 1.022, -13.784, 0.620, 0.000, 0.620, 0.006, 0.633, 0.022, -8.999, 0.596, 25.876, 0.009, 2.035, 2.926, 0.011, 0.000, 0.011, 0.349, 0.024, 1.223, 0.000, 0.612, 1.463, 0.009, 0.000, 0.000, 0.000, 0, 0, 0, 0, 0, 0, 0, 0, 0, 0, 0, 0, 0, 0, 0, 0, 0, 0, 0, 0, 0, 0, 0, 0, 0, 0, 0, 0, 0, 0, 0, 0, 0, 0, 0, 0, 0, 0, 0, 0, 0, 0, 0, 0, 0,
 16:13:41.800,e36fca7b-ac85-42ee-9e80-64b80ac1a132, 2000-00-00 00:07:35.755, 39.19, 0.7822, 0.6196, 0.0107, 0.0112, 0.0127, 0.0122, 0.00, 0.00, 0.00, 0, 0, 0, 0.0, 0.0, 0.0, 1.014, -9.824, 0.782, 0.000, 0.782, 0.005, 0.794, 0.014, -8.400, 0.629, 27.856, 0.010, 1.020, 2.051, 0.620, 0.000, 0.620, 0.006, 0.632, 0.022, -10.919, 0.595, -31.743, 0.009, 2.002, 2.801, 0.011, 0.000, 0.011, 0.343, 0.023, 1.133, 0.017, 0.606, 1.400, 0.009, 0.000, 0.000, 0.000, 0, 0, 0, 0, 0, 0, 0, 0, 0, 0, 0, 0, 0, 0, 0, 0, 0, 0, 0, 0, 0, 0, 0, 0, 0, 0, 0, 0, 0, 0, 0, 0, 0, 0, 0, 0, 0, 0, 0, 0, 0, 0, 0, 0, 0,
 16:13:42.043,e36fca7b-ac85-42ee-9e80-64b80ac1a132, 2000-00-00 00:07:36.000, 39.19, 0.7822, 0.6196, 0.0107, 0.0112, 0.0122, 0.0127, 0.00, 0.00, 0.00, 0, 0, 0, 0.0, 0.0, 0.0, 1.014, -5.948, 0.782, 0.000, 0.782, 0.005, 0.794, 0.014, -14.896, 0.630, -2.974, 0.010, 1.020, -10.856, 0.620, 0.000, 0.620, 0.006, 0.632, 0.020, -14.794, 0.591, -5.428, 0.009, 2.237, 2.949, 0.011, 0.000, 0.011, 0.356, 0.026, 1.389, -0.005, 0.611, 1.474, 0.009, 0.000, 0.000, 0.000, 0, 0, 0, 0, 0, 0, 0, 0, 0, 0, 0, 0, 0, 0, 0, 0, 0, 0, 0, 0, 0, 0, 0, 0, 0, 0, 0, 0, 0, 0, 0, 0, 0, 0, 0, 0, 0, 0, 0, 0, 0, 0, 0, 0, 0,
 16:13:42.285,e36fca7b-ac85-42ee-9e80-64b80ac1a132, 2000-00-00 00:07:36.235, 39.19, 0.7822, 0.6196, 0.0107, 0.0112, 0.0127, 0.0127, 0.00, 0.00, 0.00, 0, 0, 0, 0.0, 0.0, 0.0, 1.014, -19.000, 0.782, 0.000, 0.782, 0.005, 0.794, 0.016, -8.449, 0.641, -9.500, 0.010, 1.020, 22.873, 0.620, 0.000, 0.620, 0.006, 0.633, 0.020, -12.015, 0.589, -21.331, 0.009, 2.144, 2.915, 0.011, 0.000, 0.011, 0.357, 0.024, 1.280, -0.024, 0.606, 1.457, 0.009, 0.000, 0.000, 0.000, 0, 0, 0, 0, 0, 0, 0, 0, 0, 0, 0, 0, 0, 0, 0, 0, 0, 0, 0, 0, 0, 0, 0, 0, 0, 0, 0, 0, 0, 0, 0, 0, 0, 0, 0, 0, 0, 0, 0, 0, 0, 0, 0, 0, 0,
 16:13:42.528,e36fca7b-ac85-42ee-9e80-64b80ac1a132, 2000-00-00 00:07:36.475, 39.19, 0.7822, 0.6196, 0.0107, 0.0117, 0.0132, 0.0127, 0.00, 0.00, 0.00, 0, 0, 0, 0.0, 0.0, 0.0, 1.013, 22.732, 0.782, 0.000, 0.782, 0.005, 0.793, 0.016, 0.198, 0.616, -21.402, 0.009, 1.023, -9.614, 0.620, 0.000, 0.620, 0.006, 0.634, 0.023, -10.226, 0.587, -4.807, 0.009, 2.069, 3.003, 0.011, 0.000, 0.011, 0.339, 0.024, 1.302, 0.088, 0.597, 1.501, 0.009, 0.000, 0.000, 0.000, 0, 0, 0, 0, 0, 0, 0, 0, 0, 0, 0, 0, 0, 0, 0, 0, 0, 0, 0, 0, 0, 0, 0, 0, 0, 0, 0, 0, 0, 0, 0, 0, 0, 0, 0, 0, 0, 0, 0, 0, 0, 0, 0, 0, 0,
 16:13:42.773,e36fca7b-ac85-42ee-9e80-64b80ac1a132, 2000-00-00 00:07:36.720, 39.19, 0.7822, 0.6196, 0.0107, 0.0117, 0.0127, 0.0132, 0.00, 0.00, 0.00, 0, 0, 0, 0.0, 0.0, 0.0, 1.014, 21.596, 0.782, 0.000, 0.782, 0.005, 0.794, 0.015, 2.502, 0.630, 10.798, 0.010, 1.023, 17.572, 0.620, 0.000, 0.620, 0.005, 0.634, 0.023, -17.773, 0.579, 8.786, 0.009, 2.084, 2.861, 0.011, 0.000, 0.012, 0.337, 0.025, 1.228, 0.010, 0.605, 1.430, 0.009, 0.000, 0.000, 0.000, 0, 0, 0, 0, 0, 0, 0, 0, 0, 0, 0, 0, 0, 0, 0, 0, 0, 0, 0, 0, 0, 0, 0, 0, 0, 0, 0, 0, 0, 0, 0, 0, 0, 0, 0, 0, 0, 0, 0, 0, 0, 0, 0, 0, 0,
 16:13:43.016,e36fca7b-ac85-42ee-9e80-64b80ac1a132, 2000-00-00 00:07:36.965, 39.19, 0.7822, 0.6196, 0.0107, 0.0122, 0.0127, 0.0127, 0.00, 0.00, 0.00, 0, 0, 0, 0.0, 0.0, 0.0, 1.017, 4.312, 0.782, 0.000, 0.782, 0.005, 0.796, 0.017, -6.745, 0.634, -30.612, 0.010, 1.020, 22.056, 0.620, 0.000, 0.620, 0.006, 0.632, 0.022, -18.364, 0.588, 11.028, 0.009, 1.980, 2.750, 0.011, 0.000, 0.011, 0.349, 0.023, 1.139, 0.046, 0.613, 1.375, 0.009, 0.000, 0.000, 0.000, 0, 0, 0, 0, 0, 0, 0, 0, 0, 0, 0, 0, 0, 0, 0, 0, 0, 0, 0, 0, 0, 0, 0, 0, 0, 0, 0, 0, 0, 0, 0, 0, 0, 0, 0, 0, 0, 0, 0, 0, 0, 0, 0, 0, 0,
 16:13:43.261,e36fca7b-ac85-42ee-9e80-64b80ac1a132, 2000-00-00 00:07:37.200, 39.19, 0.7822, 0.6196, 0.0107, 0.0122, 0.0122, 0.0122, 0.00, 0.00, 0.00, 0, 0, 0, 0.0, 0.0, 0.0, 1.014, -4.896, 0.782, 0.000, 0.782, 0.005, 0.794, 0.015, 13.283, 0.622, 30.320, 0.009, 1.019, -23.991, 0.620, 0.000, 0.619, 0.005, 0.632, 0.021, -11.156, 0.579, 20.773, 0.009, 2.003, 2.707, 0.011, 0.000, 0.011, 0.358, 0.023, 1.157, -0.043, 0.626, 1.353, 0.009, 0.000, 0.000, 0.000, 0, 0, 0, 0, 0, 0, 0, 0, 0, 0, 0, 0, 0, 0, 0, 0, 0, 0, 0, 0, 0, 0, 0, 0, 0, 0, 0, 0, 0, 0, 0, 0, 0, 0, 0, 0, 0, 0, 0, 0, 0, 0, 0, 0, 0,
 16:13:43.506,e36fca7b-ac85-42ee-9e80-64b80ac1a132, 2000-00-00 00:07:37.445, 39.19, 0.7822, 0.6196, 0.0107, 0.0122, 0.0127, 0.0127, 0.00, 0.00, 0.00, 0, 0, 0, 0.0, 0.0, 0.0, 1.016, -17.336, 0.782, 0.000, 0.782, 0.005, 0.795, 0.016, -1.176, 0.620, -8.668, 0.009, 1.021, -9.840, 0.620, 0.000, 0.620, 0.006, 0.633, 0.022, -15.150, 0.586, 27.848, 0.009, 2.061, 2.837, 0.011, 0.000, 0.011, 0.358, 0.024, 1.207, -0.045, 0.620, 1.418, 0.009, 0.000, 0.000, 0.000, 0, 0, 0, 0, 0, 0, 0, 0, 0, 0, 0, 0, 0, 0, 0, 0, 0, 0, 0, 0, 0, 0, 0, 0, 0, 0, 0, 0, 0, 0, 0, 0, 0, 0, 0, 0, 0, 0, 0, 0, 0, 0, 0, 0, 0,
 16:13:43.750,e36fca7b-ac85-42ee-9e80-64b80ac1a132, 2000-00-00 00:07:37.690, 39.19, 0.7822, 0.6196, 0.0107, 0.0117, 0.0127, 0.0127, 0.00, 0.00, 0.00, 0, 0, 0, 0.0, 0.0, 0.0, 1.014, -18.336, 0.782, 0.000, 0.782, 0.005, 0.793, 0.015, 4.259, 0.627, 23.600, 0.009, 1.022, -3.882, 0.620, 0.000, 0.620, 0.006, 0.634, 0.023, -16.136, 0.594, 30.827, 0.009, 1.925, 2.801, 0.011, 0.000, 0.011, 0.362, 0.022, 1.329, 0.069, 0.620, 1.400, 0.009, 0.000, 0.000, 0.000, 0, 0, 0, 0, 0, 0, 0, 0, 0, 0, 0, 0, 0, 0, 0, 0, 0, 0, 0, 0, 0, 0, 0, 0, 0, 0, 0, 0, 0, 0, 0, 0, 0, 0, 0, 0, 0, 0, 0, 0, 0, 0, 0, 0, 0,
 16:13:43.992,e36fca7b-ac85-42ee-9e80-64b80ac1a132, 2000-00-00 00:07:37.935, 39.20, 0.7822, 0.6196, 0.0107, 0.0117, 0.0127, 0.0122, 0.00, 0.00, 0.00, 0, 0, 0, 0.0, 0.0, 0.0, 1.015, 2.544, 0.782, 0.000, 0.782, 0.005, 0.794, 0.016, -0.708, 0.623, -31.496, 0.009, 1.021, 20.482, 0.620, 0.000, 0.620, 0.006, 0.633, 0.021, -13.776, 0.581, 10.241, 0.009, 1.949, 2.840, 0.011, 0.000, 0.011, 0.352, 0.023, 1.158, -0.005, 0.614, 1.420, 0.009, 0.000, 0.000, 0.000, 0, 0, 0, 0, 0, 0, 0, 0, 0, 0, 0, 0, 0, 0, 0, 0, 0, 0, 0, 0, 0, 0, 0, 0, 0, 0, 0, 0, 0, 0, 0, 0, 0, 0, 0, 0, 0, 0, 0, 0, 0, 0, 0, 0, 0,
 16:13:44.238,e36fca7b-ac85-42ee-9e80-64b80ac1a132, 2000-00-00 00:07:38.170, 39.19, 0.7822, 0.6196, 0.0107, 0.0112, 0.0127, 0.0127, 0.00, 0.00, 0.00, 0, 0, 0, 0.0, 0.0, 0.0, 1.014, 25.196, 0.782, 0.000, 0.782, 0.005, 0.793, 0.015, -9.852, 0.635, -20.170, 0.010, 1.022, 2.239, 0.620, 0.000, 0.620, 0.006, 0.634, 0.022, -10.759, 0.586, 1.120, 0.009, 1.955, 2.747, 0.011, 0.000, 0.011, 0.355, 0.023, 1.237, 0.035, 0.620, 1.373, 0.009, 0.000, 0.000, 0.000, 0, 0, 0, 0, 0, 0, 0, 0, 0, 0, 0, 0, 0, 0, 0, 0, 0, 0, 0, 0, 0, 0, 0, 0, 0, 0, 0, 0, 0, 0, 0, 0, 0, 0, 0, 0, 0, 0, 0, 0, 0, 0, 0, 0, 0,
 16:13:44.482,e36fca7b-ac85-42ee-9e80-64b80ac1a132, 2000-00-00 00:07:38.415, 39.19, 0.7822, 0.6196, 0.0107, 0.0117, 0.0132, 0.0122, 0.00, 0.00, 0.00, 0, 0, 0, 0.0, 0.0, 0.0, 1.015, -5.688, 0.782, 0.000, 0.782, 0.005, 0.794, 0.016, 0.223, 0.625, 29.924, 0.009, 1.020, -21.542, 0.620, 0.000, 0.620, 0.006, 0.633, 0.023, -10.836, 0.586, -10.771, 0.009, 1.891, 2.755, 0.011, 0.000, 0.011, 0.344, 0.022, 1.106, -0.021, 0.598, 1.377, 0.009, 0.000, 0.000, 0.000, 0, 0, 0, 0, 0, 0, 0, 0, 0, 0, 0, 0, 0, 0, 0, 0, 0, 0, 0, 0, 0, 0, 0, 0, 0, 0, 0, 0, 0, 0, 0, 0, 0, 0, 0, 0, 0, 0, 0, 0, 0, 0, 0, 0, 0,
 16:13:44.725,e36fca7b-ac85-42ee-9e80-64b80ac1a132, 2000-00-00 00:07:38.660, 39.19, 0.7822, 0.6196, 0.0107, 0.0117, 0.0127, 0.0117, 0.00, 0.00, 0.00, 0, 0, 0, 0.0, 0.0, 0.0, 1.014, -20.128, 0.782, 0.000, 0.782, 0.005, 0.794, 0.015, -0.610, 0.635, 22.704, 0.010, 1.020, -1.864, 0.620, 0.000, 0.620, 0.005, 0.633, 0.021, -14.452, 0.578, -0.932, 0.009, 1.983, 2.717, 0.011, 0.000, 0.012, 0.346, 0.024, 1.112, -0.014, 0.620, 1.358, 0.009, 0.000, 0.000, 0.000, 0, 0, 0, 0, 0, 0, 0, 0, 0, 0, 0, 0, 0, 0, 0, 0, 0, 0, 0, 0, 0, 0, 0, 0, 0, 0, 0, 0, 0, 0, 0, 0, 0, 0, 0, 0, 0, 0, 0, 0, 0, 0, 0, 0, 0,
 16:13:44.967,e36fca7b-ac85-42ee-9e80-64b80ac1a132, 2000-00-00 00:07:38.900, 39.19, 0.7822, 0.6196, 0.0107, 0.0112, 0.0122, 0.0122, 0.00, 0.00, 0.00, 0, 0, 0, 0.0, 0.0, 0.0, 1.014, -26.188, 0.782, 0.000, 0.782, 0.005, 0.793, 0.015, -5.966, 0.643, 19.674, 0.010, 1.019, 14.273, 0.620, 0.000, 0.619, 0.005, 0.632, 0.020, -10.985, 0.579, 7.137, 0.009, 2.006, 2.911, 0.011, 0.000, 0.011, 0.354, 0.023, 1.131, -0.026, 0.622, 1.455, 0.009, 0.000, 0.000, 0.000, 0, 0, 0, 0, 0, 0, 0, 0, 0, 0, 0, 0, 0, 0, 0, 0, 0, 0, 0, 0, 0, 0, 0, 0, 0, 0, 0, 0, 0, 0, 0, 0, 0, 0, 0, 0, 0, 0, 0, 0, 0, 0, 0, 0, 0,
 16:13:45.209,e36fca7b-ac85-42ee-9e80-64b80ac1a132, 2000-00-00 00:07:39.140, 39.19, 0.7822, 0.6196, 0.0107, 0.0117, 0.0127, 0.0122, 0.00, 0.00, 0.00, 0, 0, 0, 0.0, 0.0, 0.0, 1.015, -10.116, 0.782, 0.000, 0.782, 0.005, 0.795, 0.016, -3.880, 0.637, 27.710, 0.010, 1.024, -2.976, 0.620, 0.000, 0.620, 0.005, 0.635, 0.024, -11.090, 0.579, 31.280, 0.009, 2.004, 2.780, 0.011, 0.000, 0.011, 0.358, 0.023, 1.150, -0.047, 0.622, 1.390, 0.009, 0.000, 0.000, 0.000, 0, 0, 0, 0, 0, 0, 0, 0, 0, 0, 0, 0, 0, 0, 0, 0, 0, 0, 0, 0, 0, 0, 0, 0, 0, 0, 0, 0, 0, 0, 0, 0, 0, 0, 0, 0, 0, 0, 0, 0, 0, 0, 0, 0, 0,
 16:13:45.453,e36fca7b-ac85-42ee-9e80-64b80ac1a132, 2000-00-00 00:07:39.380, 39.19, 0.7822, 0.6196, 0.0107, 0.0122, 0.0132, 0.0117, 0.00, 0.00, 0.00, 0, 0, 0, 0.0, 0.0, 0.0, 1.015, 0.788, 0.782, 0.000, 0.782, 0.005, 0.795, 0.016, -0.317, 0.639, 0.394, 0.010, 1.021, 7.029, 0.620, 0.000, 0.620, 0.006, 0.633, 0.022, -10.243, 0.586, 3.515, 0.009, 2.089, 2.803, 0.011, 0.000, 0.011, 0.356, 0.024, 1.236, -0.071, 0.607, 1.401, 0.009, 0.000, 0.000, 0.000, 0, 0, 0, 0, 0, 0, 0, 0, 0, 0, 0, 0, 0, 0, 0, 0, 0, 0, 0, 0, 0, 0, 0, 0, 0, 0, 0, 0, 0, 0, 0, 0, 0, 0, 0, 0, 0, 0, 0, 0, 0, 0, 0, 0, 0,
 16:13:45.697,e36fca7b-ac85-42ee-9e80-64b80ac1a132, 2000-00-00 00:07:39.625, 39.19, 0.7822, 0.6196, 0.0107, 0.0122, 0.0127, 0.0122, 0.00, 0.00, 0.00, 0, 0, 0, 0.0, 0.0, 0.0, 1.016, 4.660, 0.782, 0.000, 0.782, 0.005, 0.795, 0.017, -9.965, 0.622, -30.438, 0.009, 1.021, -26.623, 0.620, 0.000, 0.620, 0.006, 0.633, 0.021, -21.034, 0.582, -13.311, 0.009, 2.103, 2.973, 0.011, 0.000, 0.011, 0.357, 0.024, 1.300, 0.044, 0.617, 1.486, 0.009, 0.000, 0.000, 0.000, 0, 0, 0, 0, 0, 0, 0, 0, 0, 0, 0, 0, 0, 0, 0, 0, 0, 0, 0, 0, 0, 0, 0, 0, 0, 0, 0, 0, 0, 0, 0, 0, 0, 0, 0, 0, 0, 0, 0, 0, 0, 0, 0, 0, 0,
 16:13:45.939,e36fca7b-ac85-42ee-9e80-64b80ac1a132, 2000-00-00 00:07:39.865, 39.19, 0.7822, 0.6196, 0.0107, 0.0127, 0.0122, 0.0127, 0.00, 0.00, 0.00, 0, 0, 0, 0.0, 0.0, 0.0, 1.016, -6.272, 0.782, 0.000, 0.782, 0.005, 0.795, 0.017, -6.834, 0.643, -3.136, 0.010, 1.020, 23.805, 0.620, 0.000, 0.620, 0.006, 0.632, 0.021, -16.005, 0.591, 11.903, 0.009, 2.123, 2.889, 0.011, 0.000, 0.011, 0.358, 0.024, 1.273, -0.006, 0.610, 1.444, 0.009, 0.000, 0.000, 0.000, 0, 0, 0, 0, 0, 0, 0, 0, 0, 0, 0, 0, 0, 0, 0, 0, 0, 0, 0, 0, 0, 0, 0, 0, 0, 0, 0, 0, 0, 0, 0, 0, 0, 0, 0, 0, 0, 0, 0, 0, 0, 0, 0, 0, 0,
 16:13:46.182,e36fca7b-ac85-42ee-9e80-64b80ac1a132, 2000-00-00 00:07:40.110, 39.19, 0.7822, 0.6196, 0.0107, 0.0122, 0.0127, 0.0127, 0.00, 0.00, 0.00, 0, 0, 0, 0.0, 0.0, 0.0, 1.015, -18.724, 0.782, 0.000, 0.782, 0.005, 0.794, 0.015, -3.621, 0.642, 23.406, 0.010, 1.022, -0.221, 0.620, 0.000, 0.620, 0.006, 0.633, 0.022, -8.510, 0.587, 32.658, 0.009, 1.974, 2.876, 0.011, 0.000, 0.011, 0.366, 0.022, 1.381, 0.032, 0.621, 1.438, 0.009, 0.000, 0.000, 0.000, 0, 0, 0, 0, 0, 0, 0, 0, 0, 0, 0, 0, 0, 0, 0, 0, 0, 0, 0, 0, 0, 0, 0, 0, 0, 0, 0, 0, 0, 0, 0, 0, 0, 0, 0, 0, 0, 0, 0, 0, 0, 0, 0, 0, 0,
 16:13:46.425,e36fca7b-ac85-42ee-9e80-64b80ac1a132, 2000-00-00 00:07:40.345, 39.19, 0.7822, 0.6196, 0.0107, 0.0117, 0.0127, 0.0127, 0.00, 0.00, 0.00, 0, 0, 0, 0.0, 0.0, 0.0, 1.014, -17.592, 0.782, 0.000, 0.782, 0.005, 0.793, 0.016, -2.307, 0.629, 23.972, 0.010, 1.020, 20.072, 0.620, 0.000, 0.620, 0.006, 0.632, 0.021, -7.841, 0.592, 10.036, 0.009, 2.021, 2.849, 0.011, 0.000, 0.011, 0.360, 0.023, 1.230, 0.070, 0.619, 1.424, 0.009, 0.000, 0.000, 0.000, 0, 0, 0, 0, 0, 0, 0, 0, 0, 0, 0, 0, 0, 0, 0, 0, 0, 0, 0, 0, 0, 0, 0, 0, 0, 0, 0, 0, 0, 0, 0, 0, 0, 0, 0, 0, 0, 0, 0, 0, 0, 0, 0, 0, 0,
 16:13:46.667,e36fca7b-ac85-42ee-9e80-64b80ac1a132, 2000-00-00 00:07:40.590, 39.19, 0.7822, 0.6196, 0.0107, 0.0117, 0.0122, 0.0127, 0.00, 0.00, 0.00, 0, 0, 0, 0.0, 0.0, 0.0, 1.014, -30.284, 0.782, 0.000, 0.782, 0.005, 0.793, 0.016, -0.586, 0.626, 17.626, 0.009, 1.018, 0.383, 0.620, 0.000, 0.620, 0.006, 0.631, 0.020, -13.712, 0.585, 0.192, 0.009, 1.983, 2.808, 0.011, 0.000, 0.011, 0.363, 0.023, 1.226, 0.044, 0.617, 1.404, 0.009, 0.000, 0.000, 0.000, 0, 0, 0, 0, 0, 0, 0, 0, 0, 0, 0, 0, 0, 0, 0, 0, 0, 0, 0, 0, 0, 0, 0, 0, 0, 0, 0, 0, 0, 0, 0, 0, 0, 0, 0, 0, 0, 0, 0, 0, 0, 0, 0, 0, 0,
 16:13:46.909,e36fca7b-ac85-42ee-9e80-64b80ac1a132, 2000-00-00 00:07:40.830, 39.19, 0.7822, 0.6196, 0.0107, 0.0117, 0.0122, 0.0122, 0.00, 0.00, 0.00, 0, 0, 0, 0.0, 0.0, 0.0, 1.014, 10.212, 0.782, 0.000, 0.782, 0.005, 0.793, 0.017, -4.378, 0.629, 5.106, 0.010, 1.021, 3.711, 0.620, 0.000, 0.620, 0.006, 0.633, 0.021, -14.141, 0.591, 1.856, 0.009, 2.008, 2.777, 0.011, 0.000, 0.011, 0.357, 0.023, 1.167, 0.061, 0.607, 1.388, 0.009, 0.000, 0.000, 0.000, 0, 0, 0, 0, 0, 0, 0, 0, 0, 0, 0, 0, 0, 0, 0, 0, 0, 0, 0, 0, 0, 0, 0, 0, 0, 0, 0, 0, 0, 0, 0, 0, 0, 0, 0, 0, 0, 0, 0, 0, 0, 0, 0, 0, 0,
 16:13:47.152,e36fca7b-ac85-42ee-9e80-64b80ac1a132, 2000-00-00 00:07:41.075, 39.19, 0.7822, 0.6196, 0.0107, 0.0117, 0.0122, 0.0122, 0.00, 0.00, 0.00, 0, 0, 0, 0.0, 0.0, 0.0, 1.015, -7.652, 0.782, 0.000, 0.782, 0.005, 0.794, 0.016, -6.262, 0.643, -3.826, 0.010, 1.019, 29.332, 0.620, 0.000, 0.620, 0.006, 0.632, 0.021, -19.054, 0.592, 14.666, 0.009, 2.084, 2.801, 0.011, 0.000, 0.011, 0.343, 0.024, 1.215, -0.013, 0.600, 1.400, 0.009, 0.000, 0.000, 0.000, 0, 0, 0, 0, 0, 0, 0, 0, 0, 0, 0, 0, 0, 0, 0, 0, 0, 0, 0, 0, 0, 0, 0, 0, 0, 0, 0, 0, 0, 0, 0, 0, 0, 0, 0, 0, 0, 0, 0, 0, 0, 0, 0, 0, 0,
