Time,Device name,Chip Time(),Temperature(℃),Acceleration X(g),Acceleration Y(g),Acceleration Z(g),X acceleration amplitude(g),Y acceleration amplitude(g),Z acceleration amplitude(g),X velocity amplitude(mm/s),Y velocity amplitude(mm/s),Z velocity amplitude(mm/s),X displacement amplitude(um),Y displacement amplitude(um),Z displacement amplitude(um),X frequency vibration frequency(Hz),Y frequency vibration frequency(Hz),Z frequency vibration frequency(Hz),(g),(g),(g),(g),(g),(),(g),(),(g),(mm/s),(g),(mm),(g),(g),(g),(g),(g),(),(g),(),(g),(mm/s),(g),(mm),(g),(g),(g),(g),(g),(),(g),(),(g),(mm/s),(g),(mm),(),(),(),(),(),(),(),(),(),(),(),(),(),(),(),(),(),(),(),(),(),(),(),(),(),(),(),(),(),(),(),(),(),(),(),(),(),(),(),(),(),(),(),(),(),(),(),()
 10:01:39.779,cc4e56be-6cf7-401e-901a-d2c91c55186c, 2000-00-00 00:00:14.690, 34.19, 0.3057, 0.9482, 0.0386, 0.4082, 0.3213, 0.1602, 0.61, 0.49, 0.20, 0, 0, 0, 461.8, 397.4, 23.7, 2.269, 3.148, 0.306, 0.017, 0.332, 0.430, 0.754, 1.504, 0.012, 0.445, 1.574, 0.000, 1.349, 3.117, 0.948, 0.011, 0.954, 0.111, 1.287, 0.378, 0.033, 0.416, 1.558, 0.000, 3.747, 3.338, 0.039, 0.001, 0.049, 1.113, 0.186, 4.229, -0.103, 2.870, 1.669, 0.019, 0.000, 0.000, 0.000, 0, 0, 1, 1, 0, 0, 2, 0, 11, 26, 54, 39, 42, 63, 9219, 0, 0, 4, 1, 0, 1, 2, 0, 18, 35, 54, 83, 38, 61, 5741, 0, 0, 9, 1, 0, 0, 2, 1, 8, 126, 137, 46, 17, 32, 904,
 10:01:40.023,cc4e56be-6cf7-401e-901a-d2c91c55186c, 2000-00-00 00:00:14.935, 34.20, 0.3057, 0.9482, 0.0391, 0.4268, 0.3296, 0.1655, 0.60, 0.48, 0.20, 0, 0, 0, 461.8, 461.8, 23.7, 2.170, 2.972, 0.306, 0.016, 0.330, 0.415, 0.718, 1.353, 0.007, 0.429, 1.486, 0.000, 1.332, 3.054, 0.948, 0.010, 0.953, 0.108, 1.270, 0.344, 0.029, 0.403, 1.527, 0.000, 3.714, 3.534, 0.039, 0.001, 0.050, 1.111, 0.185, 4.283, -0.005, 2.893, 1.767, 0.019, 0.000, 0.000, 0.000, 0, 0, 2, 0, 1, 0, 1, 0, 17, 27, 47, 36, 35, 38, 8120, 0, 1, 5, 1, 0, 0, 1, 0, 9, 53, 73, 85, 23, 84, 5458, 0, 1, 10, 0, 0, 0, 1, 0, 9, 137, 150, 69, 17, 73, 1051,
 10:01:40.265,cc4e56be-6cf7-401e-901a-d2c91c55186c, 2000-00-00 00:00:15.175, 34.18, 0.3057, 0.9482, 0.0391, 0.4038, 0.3252, 0.1587, 0.60, 0.49, 0.21, 0, 0, 0, 461.8, 461.8, 23.7, 2.111, 2.833, 0.306, 0.017, 0.331, 0.426, 0.700, 1.295, -0.001, 0.440, 1.416, 0.000, 1.334, 2.972, 0.948, 0.011, 0.954, 0.112, 1.273, 0.347, 0.003, 0.360, 1.486, 0.000, 3.587, 3.440, 0.039, 0.001, 0.050, 1.116, 0.180, 4.159, 0.007, 2.919, 1.720, 0.019, 0.000, 0.000, 0.000, 0, 0, 2, 0, 1, 0, 1, 0, 17, 27, 47, 36, 35, 38, 8120, 0, 1, 5, 1, 0, 0, 1, 0, 9, 53, 73, 85, 23, 84, 5458, 0, 1, 10, 0, 0, 0, 1, 0, 9, 137, 150, 69, 17, 73, 1051,
 10:01:40.508,cc4e56be-6cf7-401e-901a-d2c91c55186c, 2000-00-00 00:00:15.420, 34.20, 0.3057, 0.9482, 0.0391, 0.4155, 0.3506, 0.1602, 0.62, 0.50, 0.21, 0, 0, 0, 461.8, 461.8, 23.7, 2.224, 3.198, 0.306, 0.016, 0.330, 0.418, 0.735, 1.495, 0.000, 0.432, 1.599, 0.000, 1.400, 3.316, 0.948, 0.011, 0.954, 0.110, 1.335, 0.430, 0.036, 0.354, 1.658, 0.000, 3.702, 3.498, 0.039, 0.001, 0.049, 1.121, 0.184, 4.262, -0.026, 2.898, 1.749, 0.019, 0.000, 0.000, 0.000, 0, 0, 2, 0, 1, 0, 1, 0, 17, 27, 47, 36, 35, 38, 8120, 0, 1, 5, 1, 0, 0, 1, 0, 9, 53, 73, 85, 23, 84, 5458, 0, 1, 10, 0, 0, 0, 1, 0, 9, 137, 150, 69, 17, 73, 1051,
 10:01:40.750,cc4e56be-6cf7-401e-901a-d2c91c55186c, 2000-00-00 00:00:15.660, 34.21, 0.3057, 0.9482, 0.0391, 0.4326, 0.3677, 0.1558, 0.63, 0.51, 0.20, 0, 0, 0, 461.8, 461.8, 23.7, 2.082, 2.859, 0.306, 0.019, 0.335, 0.452, 0.697, 1.454, -0.008, 0.467, 1.429, 0.000, 1.368, 2.914, 0.948, 0.012, 0.954, 0.117, 1.306, 0.401, 0.027, 0.375, 1.457, 0.000, 3.564, 3.405, 0.039, 0.001, 0.049, 1.119, 0.176, 3.995, -0.100, 2.868, 1.702, 0.019, 0.000, 0.000, 0.000, 0, 0, 2, 0, 1, 0, 1, 0, 17, 27, 47, 36, 35, 38, 8120, 0, 1, 5, 1, 0, 0, 1, 0, 9, 53, 73, 85, 23, 84, 5458, 0, 1, 10, 0, 0, 0, 1, 0, 9, 137, 150, 69, 17, 73, 1051,
 10:01:40.993,cc4e56be-6cf7-401e-901a-d2c91c55186c, 2000-00-00 00:00:15.900, 34.22, 0.3057, 0.9482, 0.0391, 0.3979, 0.3330, 0.1523, 0.61, 0.49, 0.20, 0, 0, 0, 461.8, 461.8, 23.7, 2.026, 2.750, 0.306, 0.015, 0.329, 0.409, 0.668, 1.291, 0.005, 0.422, 1.375, 0.000, 1.304, 2.753, 0.948, 0.010, 0.953, 0.105, 1.244, 0.321, -0.008, 0.338, 1.376, 0.000, 3.651, 3.397, 0.039, 0.001, 0.048, 1.099, 0.179, 4.073, -0.069, 2.797, 1.698, 0.018, 0.000, 0.000, 0.000, 0, 0, 2, 0, 1, 0, 1, 0, 17, 27, 47, 36, 35, 38, 8120, 0, 1, 5, 1, 0, 0, 1, 0, 9, 53, 73, 85, 23, 84, 5458, 0, 1, 10, 0, 0, 0, 1, 0, 9, 137, 150, 69, 17, 73, 1051,
 10:01:41.237,cc4e56be-6cf7-401e-901a-d2c91c55186c, 2000-00-00 00:00:16.145, 34.21, 0.3057, 0.9482, 0.0391, 0.3965, 0.3276, 0.1592, 0.62, 0.50, 0.20, 0, 0, 0, 461.8, 461.8, 23.7, 2.084, 2.887, 0.306, 0.016, 0.331, 0.423, 0.690, 1.345, 0.007, 0.437, 1.443, 0.000, 1.342, 2.953, 0.948, 0.011, 0.954, 0.111, 1.281, 0.353, -0.011, 0.356, 1.476, 0.000, 3.978, 3.630, 0.039, 0.001, 0.049, 1.103, 0.198, 4.520, -0.071, 2.854, 1.815, 0.019, 0.000, 0.000, 0.000, 1, 0, 3, 1, 1, 1, 0, 1, 21, 22, 41, 49, 54, 64, 9008, 1, 1, 4, 1, 1, 0, 0, 0, 32, 34, 76, 102, 28, 70, 5900, 1, 0, 11, 1, 1, 0, 1, 1, 17, 153, 169, 51, 39, 51, 1047,
 10:01:41.479,cc4e56be-6cf7-401e-901a-d2c91c55186c, 2000-00-00 00:00:16.390, 34.20, 0.3057, 0.9482, 0.0391, 0.3853, 0.3062, 0.1655, 0.59, 0.48, 0.20, 0, 0, 0, 461.8, 461.8, 23.7, 2.155, 2.821, 0.306, 0.015, 0.329, 0.404, 0.709, 1.334, -0.031, 0.417, 1.410, 0.000, 1.307, 2.850, 0.948, 0.010, 0.953, 0.106, 1.246, 0.345, -0.005, 0.339, 1.425, 0.000, 3.715, 3.519, 0.039, 0.001, 0.050, 1.095, 0.185, 4.289, 0.016, 2.875, 1.759, 0.019, 0.000, 0.000, 0.000, 1, 0, 3, 1, 1, 1, 0, 1, 21, 22, 41, 49, 54, 64, 9008, 1, 1, 4, 1, 1, 0, 0, 0, 32, 34, 76, 102, 28, 70, 5900, 1, 0, 11, 1, 1, 0, 1, 1, 17, 153, 169, 51, 39, 51, 1047,
 10:01:41.722,cc4e56be-6cf7-401e-901a-d2c91c55186c, 2000-00-00 00:00:16.630, 34.21, 0.3057, 0.9482, 0.0391, 0.3833, 0.3120, 0.1655, 0.60, 0.48, 0.20, 0, 0, 0, 461.8, 461.8, 23.7, 2.232, 2.867, 0.306, 0.018, 0.333, 0.439, 0.745, 1.453, 0.006, 0.454, 1.433, 0.000, 1.343, 2.884, 0.948, 0.011, 0.954, 0.112, 1.282, 0.361, 0.000, 0.361, 1.442, 0.000, 4.093, 3.651, 0.039, 0.001, 0.049, 1.102, 0.202, 4.683, 0.010, 2.838, 1.825, 0.018, 0.000, 0.000, 0.000, 1, 0, 3, 1, 1, 1, 0, 1, 21, 22, 41, 49, 54, 64, 9008, 1, 1, 4, 1, 1, 0, 0, 0, 32, 34, 76, 102, 28, 70, 5900, 1, 0, 11, 1, 1, 0, 1, 1, 17, 153, 169, 51, 39, 51, 1047,
 10:01:41.965,cc4e56be-6cf7-401e-901a-d2c91c55186c, 2000-00-00 00:00:16.870, 34.21, 0.3057, 0.9482, 0.0391, 0.3975, 0.3184, 0.1650, 0.63, 0.50, 0.20, 0, 0, 0, 461.8, 461.8, 23.7, 2.114, 2.666, 0.306, 0.017, 0.333, 0.436, 0.704, 1.336, -0.004, 0.450, 1.333, 0.000, 1.327, 2.696, 0.948, 0.011, 0.954, 0.111, 1.266, 0.338, -0.043, 0.357, 1.348, 0.000, 3.725, 3.422, 0.039, 0.001, 0.050, 1.113, 0.186, 4.191, -0.029, 2.895, 1.711, 0.019, 0.000, 0.000, 0.000, 1, 0, 3, 1, 1, 1, 0, 1, 21, 22, 41, 49, 54, 64, 9008, 1, 1, 4, 1, 1, 0, 0, 0, 32, 34, 76, 102, 28, 70, 5900, 1, 0, 11, 1, 1, 0, 1, 1, 17, 153, 169, 51, 39, 51, 1047,
 10:01:42.207,cc4e56be-6cf7-401e-901a-d2c91c55186c, 2000-00-00 00:00:17.115, 34.20, 0.3057, 0.9482, 0.0391, 0.3975, 0.3184, 0.1563, 0.70, 0.56, 0.23, 0, 0, 0, 399.4, 399.4, 23.7, 2.115, 2.685, 0.306, 0.017, 0.333, 0.436, 0.704, 1.318, -0.008, 0.520, 1.342, 0.000, 1.321, 2.770, 0.948, 0.011, 0.953, 0.111, 1.261, 0.344, -0.056, 0.413, 1.385, 0.000, 3.543, 3.231, 0.039, 0.001, 0.049, 1.108, 0.176, 3.942, 0.051, 2.903, 1.615, 0.019, 0.000, 0.000, 0.000, 0, 0, 1, 1, 2, 1, 2, 2, 26, 9, 50, 42, 65, 67, 9225, 0, 0, 4, 1, 1, 1, 1, 1, 13, 37, 62, 59, 40, 57, 5771, 0, 1, 10, 2, 1, 0, 1, 1, 22, 135, 157, 43, 46, 39, 999,
 10:01:42.450,cc4e56be-6cf7-401e-901a-d2c91c55186c, 2000-00-00 00:00:17.355, 34.22, 0.3057, 0.9482, 0.0391, 0.3857, 0.3105, 0.1548, 0.71, 0.56, 0.23, 0, 0, 0, 399.4, 399.4, 23.7, 2.076, 2.867, 0.305, 0.016, 0.331, 0.422, 0.687, 1.308, -0.032, 0.503, 1.433, 0.000, 1.323, 2.871, 0.948, 0.010, 0.953, 0.107, 1.262, 0.332, -0.063, 0.399, 1.435, 0.000, 3.733, 3.435, 0.039, 0.001, 0.048, 1.106, 0.181, 4.294, 0.043, 2.815, 1.717, 0.018, 0.000, 0.000, 0.000, 0, 0, 1, 1, 2, 1, 2, 2, 26, 9, 50, 42, 65, 67, 9225, 0, 0, 4, 1, 1, 1, 1, 1, 13, 37, 62, 59, 40, 57, 5771, 0, 1, 10, 2, 1, 0, 1, 1, 22, 135, 157, 43, 46, 39, 999,
 10:01:42.695,cc4e56be-6cf7-401e-901a-d2c91c55186c, 2000-00-00 00:00:17.600, 34.22, 0.3057, 0.9482, 0.0391, 0.3984, 0.3145, 0.1650, 0.74, 0.59, 0.24, 0, 0, 0, 399.4, 399.4, 23.7, 2.123, 2.699, 0.305, 0.018, 0.334, 0.444, 0.709, 1.334, -0.001, 0.530, 1.349, 0.000, 1.324, 2.801, 0.948, 0.011, 0.954, 0.113, 1.264, 0.356, -0.045, 0.420, 1.400, 0.000, 3.992, 3.421, 0.039, 0.002, 0.050, 1.114, 0.201, 4.555, -0.036, 2.933, 1.710, 0.019, 0.000, 0.000, 0.000, 0, 0, 1, 1, 2, 1, 2, 2, 26, 9, 50, 42, 65, 67, 9225, 0, 0, 4, 1, 1, 1, 1, 1, 13, 37, 62, 59, 40, 57, 5771, 0, 1, 10, 2, 1, 0, 1, 1, 22, 135, 157, 43, 46, 39, 999,
 10:01:42.937,cc4e56be-6cf7-401e-901a-d2c91c55186c, 2000-00-00 00:00:17.840, 34.22, 0.3057, 0.9482, 0.0391, 0.4204, 0.3340, 0.1655, 0.74, 0.60, 0.24, 0, 0, 0, 399.4, 399.4, 23.7, 2.273, 2.812, 0.305, 0.017, 0.332, 0.435, 0.757, 1.478, -0.013, 0.520, 1.406, 0.000, 1.361, 2.801, 0.948, 0.011, 0.954, 0.115, 1.299, 0.400, -0.027, 0.426, 1.400, 0.000, 3.620, 3.557, 0.039, 0.001, 0.050, 1.102, 0.182, 4.242, 0.092, 2.916, 1.778, 0.019, 0.000, 0.000, 0.000, 0, 0, 1, 1, 2, 1, 2, 2, 26, 9, 50, 42, 65, 67, 9225, 0, 0, 4, 1, 1, 1, 1, 1, 13, 37, 62, 59, 40, 57, 5771, 0, 1, 10, 2, 1, 0, 1, 1, 22, 135, 157, 43, 46, 39, 999,
 10:01:51.187,cc4e56be-6cf7-401e-901a-d2c91c55186c, 2000-00-00 00:00:26.070, 34.21, 0.3057, 0.9482, 0.0391, 0.4116, 0.3335, 0.1563, 0.67, 0.54, 0.22, 0, 0, 0, 460.8, 398.4, 23.7, 2.075, 2.796, 0.305, 0.017, 0.333, 0.434, 0.691, 1.343, -0.028, 0.450, 1.398, 0.000, 1.329, 2.960, 0.948, 0.011, 0.953, 0.110, 1.268, 0.350, -0.050, 0.410, 1.480, 0.000, 3.464, 3.255, 0.039, 0.001, 0.050, 1.090, 0.173, 3.954, 0.061, 2.882, 1.627, 0.019, 0.000, 0.000, 0.000, 0, 0, 2, 0, 0, 3, 1, 1, 29, 28, 40, 45, 53, 59, 9370, 0, 0, 5, 1, 1, 2, 1, 1, 22, 54, 89, 70, 59, 66, 6119, 0, 0, 9, 2, 0, 1, 1, 0, 11, 120, 166, 57, 41, 49, 953,
 10:01:51.430,cc4e56be-6cf7-401e-901a-d2c91c55186c, 2000-00-00 00:00:26.315, 34.25, 0.3057, 0.9482, 0.0391, 0.4277, 0.3438, 0.1553, 0.65, 0.52, 0.20, 0, 0, 0, 462.8, 462.8, 23.7, 2.165, 2.794, 0.306, 0.019, 0.335, 0.456, 0.727, 1.412, 0.020, 0.470, 1.397, 0.000, 1.353, 2.854, 0.948, 0.012, 0.954, 0.117, 1.292, 0.369, -0.017, 0.376, 1.427, 0.000, 3.635, 3.427, 0.039, 0.001, 0.048, 1.103, 0.178, 4.168, 0.068, 2.825, 1.713, 0.018, 0.000, 0.000, 0.000, 1, 0, 1, 0, 1, 0, 3, 2, 18, 27, 39, 40, 70, 83, 10196, 1, 0, 4, 1, 1, 1, 1, 1, 19, 67, 73, 93, 31, 89, 6555, 0, 1, 12, 1, 1, 1, 1, 1, 13, 242, 204, 62, 18, 68, 1028,
 10:01:51.675,cc4e56be-6cf7-401e-901a-d2c91c55186c, 2000-00-00 00:00:26.555, 34.30, 0.3057, 0.9482, 0.0391, 0.4160, 0.3359, 0.1489, 0.63, 0.51, 0.20, 0, 0, 0, 462.8, 462.8, 23.7, 2.144, 2.856, 0.306, 0.017, 0.332, 0.427, 0.712, 1.384, 0.040, 0.440, 1.428, 0.000, 1.351, 2.804, 0.948, 0.011, 0.953, 0.111, 1.289, 0.361, -0.015, 0.355, 1.402, 0.000, 3.367, 3.180, 0.039, 0.001, 0.048, 1.082, 0.163, 3.731, 0.057, 2.775, 1.590, 0.018, 0.000, 0.000, 0.000, 1, 0, 1, 0, 1, 0, 3, 2, 18, 27, 39, 40, 70, 83, 10196, 1, 0, 4, 1, 1, 1, 1, 1, 19, 67, 73, 93, 31, 89, 6555, 0, 1, 12, 1, 1, 1, 1, 1, 13, 242, 204, 62, 18, 68, 1028,
 10:01:51.918,cc4e56be-6cf7-401e-901a-d2c91c55186c, 2000-00-00 00:00:26.800, 34.27, 0.3057, 0.9482, 0.0391, 0.4297, 0.3472, 0.1514, 0.64, 0.52, 0.20, 0, 0, 0, 462.8, 462.8, 23.7, 2.331, 3.290, 0.306, 0.020, 0.336, 0.459, 0.784, 1.593, 0.012, 0.476, 1.645, 0.000, 1.392, 3.181, 0.948, 0.012, 0.954, 0.119, 1.329, 0.405, 0.001, 0.383, 1.590, 0.000, 3.791, 3.316, 0.039, 0.001, 0.049, 1.092, 0.187, 4.278, 0.014, 2.811, 1.658, 0.018, 0.000, 0.000, 0.000, 1, 0, 1, 0, 1, 0, 3, 2, 18, 27, 39, 40, 70, 83, 10196, 1, 0, 4, 1, 1, 1, 1, 1, 19, 67, 73, 93, 31, 89, 6555, 0, 1, 12, 1, 1, 1, 1, 1, 13, 242, 204, 62, 18, 68, 1028,
 10:01:52.163,cc4e56be-6cf7-401e-901a-d2c91c55186c, 2000-00-00 00:00:27.045, 34.25, 0.3057, 0.9482, 0.0391, 0.4019, 0.3262, 0.1665, 0.61, 0.49, 0.20, 0, 0, 0, 462.8, 462.8, 23.7, 2.063, 3.022, 0.306, 0.015, 0.328, 0.399, 0.679, 1.285, 0.003, 0.411, 1.511, 0.000, 1.323, 3.008, 0.948, 0.010, 0.953, 0.105, 1.261, 0.336, -0.016, 0.336, 1.504, 0.000, 4.273, 3.854, 0.039, 0.001, 0.049, 1.100, 0.213, 4.908, 0.009, 2.854, 1.927, 0.019, 0.000, 0.000, 0.000, 1, 0, 1, 0, 1, 0, 3, 2, 18, 27, 39, 40, 70, 83, 10196, 1, 0, 4, 1, 1, 1, 1, 1, 19, 67, 73, 93, 31, 89, 6555, 0, 1, 12, 1, 1, 1, 1, 1, 13, 242, 204, 62, 18, 68, 1028,
 10:01:52.407,cc4e56be-6cf7-401e-901a-d2c91c55186c, 2000-00-00 00:00:27.290, 34.24, 0.3057, 0.9482, 0.0391, 0.4092, 0.3350, 0.1851, 0.68, 0.55, 0.23, 0, 0, 0, 398.4, 398.4, 23.7, 2.136, 2.928, 0.306, 0.015, 0.329, 0.408, 0.704, 1.348, -0.011, 0.489, 1.464, 0.000, 1.327, 2.990, 0.948, 0.010, 0.953, 0.105, 1.266, 0.363, -0.002, 0.392, 1.495, 0.000, 4.182, 3.755, 0.039, 0.001, 0.049, 1.103, 0.208, 4.785, 0.044, 2.867, 1.877, 0.019, 0.000, 0.000, 0.000, 0, 0, 1, 1, 1, 1, 2, 0, 14, 25, 45, 37, 42, 61, 9067, 1, 0, 5, 1, 0, 1, 0, 0, 15, 56, 91, 55, 61, 53, 6022, 0, 0, 9, 1, 0, 0, 2, 0, 15, 118, 145, 38, 39, 68, 949,
 10:01:52.650,cc4e56be-6cf7-401e-901a-d2c91c55186c, 2000-00-00 00:00:27.530, 34.28, 0.3057, 0.9482, 0.0391, 0.4033, 0.3325, 0.1729, 0.69, 0.55, 0.23, 0, 0, 0, 398.4, 398.4, 23.7, 2.166, 2.869, 0.306, 0.017, 0.332, 0.426, 0.719, 1.363, -0.020, 0.510, 1.434, 0.000, 1.360, 3.045, 0.948, 0.011, 0.954, 0.110, 1.297, 0.377, 0.017, 0.410, 1.522, 0.000, 3.668, 3.331, 0.039, 0.001, 0.049, 1.096, 0.183, 4.064, 0.055, 2.882, 1.665, 0.019, 0.000, 0.000, 0.000, 0, 0, 1, 1, 1, 1, 2, 0, 14, 25, 45, 37, 42, 61, 9067, 1, 0, 5, 1, 0, 1, 0, 0, 15, 56, 91, 55, 61, 53, 6022, 0, 0, 9, 1, 0, 0, 2, 0, 15, 118, 145, 38, 39, 68, 949,
 10:01:52.893,cc4e56be-6cf7-401e-901a-d2c91c55186c, 2000-00-00 00:00:27.775, 34.29, 0.3057, 0.9482, 0.0391, 0.4038, 0.3447, 0.1616, 0.69, 0.56, 0.24, 0, 0, 0, 398.4, 398.4, 23.7, 2.131, 2.881, 0.306, 0.015, 0.329, 0.409, 0.703, 1.323, -0.001, 0.489, 1.440, 0.000, 1.338, 2.976, 0.948, 0.010, 0.953, 0.107, 1.277, 0.352, 0.051, 0.397, 1.488, 0.000, 3.716, 3.429, 0.039, 0.001, 0.049, 1.104, 0.184, 4.194, 0.104, 2.885, 1.714, 0.019, 0.000, 0.000, 0.000, 0, 0, 1, 1, 1, 1, 2, 0, 14, 25, 45, 37, 42, 61, 9067, 1, 0, 5, 1, 0, 1, 0, 0, 15, 56, 91, 55, 61, 53, 6022, 0, 0, 9, 1, 0, 0, 2, 0, 15, 118, 145, 38, 39, 68, 949,
 10:01:53.136,cc4e56be-6cf7-401e-901a-d2c91c55186c, 2000-00-00 00:00:28.015, 34.27, 0.3057, 0.9482, 0.0391, 0.4087, 0.3354, 0.1597, 0.71, 0.57, 0.24, 0, 0, 0, 398.4, 398.4, 23.7, 2.283, 2.964, 0.306, 0.019, 0.336, 0.459, 0.768, 1.511, -0.002, 0.551, 1.482, 0.000, 1.371, 2.907, 0.948, 0.012, 0.954, 0.118, 1.309, 0.395, -0.002, 0.439, 1.453, 0.000, 3.478, 3.162, 0.039, 0.001, 0.049, 1.093, 0.173, 4.022, 0.102, 2.875, 1.581, 0.019, 0.000, 0.000, 0.000, 0, 0, 1, 1, 1, 1, 2, 0, 14, 25, 45, 37, 42, 61, 9067, 1, 0, 5, 1, 0, 1, 0, 0, 15, 56, 91, 55, 61, 53, 6022, 0, 0, 9, 1, 0, 0, 2, 0, 15, 118, 145, 38, 39, 68, 949,
 10:01:53.381,cc4e56be-6cf7-401e-901a-d2c91c55186c, 2000-00-00 00:00:28.260, 34.26, 0.3057, 0.9482, 0.0391, 0.4092, 0.3301, 0.1602, 0.64, 0.51, 0.21, 0, 0, 0, 463.8, 398.4, 23.7, 2.136, 2.802, 0.306, 0.016, 0.330, 0.415, 0.706, 1.313, 0.021, 0.427, 1.401, 0.000, 1.307, 2.837, 0.948, 0.010, 0.953, 0.105, 1.246, 0.348, 0.003, 0.392, 1.418, 0.000, 3.759, 3.560, 0.039, 0.001, 0.048, 1.105, 0.184, 4.271, 0.025, 2.819, 1.780, 0.018, 0.000, 0.000, 0.000, 0, 0, 3, 2, 0, 0, 2, 0, 25, 30, 61, 41, 54, 51, 8824, 0, 0, 2, 1, 1, 1, 0, 0, 25, 38, 72, 88, 38, 62, 5481, 0, 0, 11, 0, 0, 0, 2, 1, 20, 170, 191, 51, 30, 46, 991,
