Time,Device name,Chip Time(),Temperature(℃),Acceleration X(g),Acceleration Y(g),Acceleration Z(g),X acceleration amplitude(g),Y acceleration amplitude(g),Z acceleration amplitude(g),X velocity amplitude(mm/s),Y velocity amplitude(mm/s),Z velocity amplitude(mm/s),X displacement amplitude(um),Y displacement amplitude(um),Z displacement amplitude(um),X frequency vibration frequency(Hz),Y frequency vibration frequency(Hz),Z frequency vibration frequency(Hz),(g),(g),(g),(g),(g),(),(g),(),(g),(mm/s),(g),(mm),(g),(g),(g),(g),(g),(),(g),(),(g),(mm/s),(g),(mm),(g),(g),(g),(g),(g),(),(g),(),(g),(mm/s),(g),(mm),(),(),(),(),(),(),(),(),(),(),(),(),(),(),(),(),(),(),(),(),(),(),(),(),(),(),(),(),(),(),(),(),(),(),(),(),(),(),(),(),(),(),(),(),(),(),(),()
 15:08:54.633,e36fca7b-ac85-42ee-9e80-64b80ac1a132, 2000-00-00 00:01:17.085, 39.07, 0.7822, 0.6201, 0.0366, 0.3721, 0.3350, 0.1675, 0.11, 0.10, 0.04, 0, 0, 0, 2140.5, 2140.5, 15.8, 1.497, 3.323, 0.782, 0.011, 0.789, 0.136, 1.182, 0.515, 0.002, 0.078, 1.661, 0.000, 1.496, 3.431, 0.620, 0.008, 0.627, 0.148, 0.938, 0.609, 0.085, 0.067, 1.715, 0.000, 4.216, 3.495, 0.037, 0.001, 0.043, 1.235, 0.184, 5.338, 0.060, 4.177, 1.747, 0.041, 0.000, 0.000, 0.000, 4, 0, 4, 3, 2, 1, 0, 1, 0, 18, 33, 22, 9, 2, 4281, 2, 0, 2, 2, 3, 0, 0, 0, 0, 6, 14, 17, 10, 0, 3685, 11, 0, 11, 10, 5, 1, 1, 3, 0, 122, 240, 150, 34, 5, 887,
 15:08:54.882,e36fca7b-ac85-42ee-9e80-64b80ac1a132, 2000-00-00 00:01:17.330, 39.07, 0.7822, 0.6201, 0.0366, 0.3667, 0.3291, 0.1738, 0.10, 0.09, 0.04, 0, 0, 0, 2140.5, 2140.5, 15.8, 1.491, 3.256, 0.782, 0.012, 0.789, 0.142, 1.178, 0.507, -0.062, 0.079, 1.628, 0.000, 1.500, 3.444, 0.620, 0.008, 0.627, 0.152, 0.941, 0.581, 0.040, 0.067, 1.722, 0.000, 4.153, 3.632, 0.037, 0.001, 0.045, 1.215, 0.189, 5.454, 0.163, 4.308, 1.816, 0.043, 0.000, 0.000, 0.000, 3, 0, 3, 4, 3, 1, 0, 1, 0, 10, 34, 37, 15, 2, 6365, 1, 0, 1, 3, 2, 0, 0, 1, 0, 3, 12, 14, 6, 1, 4016, 8, 0, 8, 12, 2, 4, 2, 4, 0, 74, 222, 154, 22, 21, 1025,
 15:08:55.126,e36fca7b-ac85-42ee-9e80-64b80ac1a132, 2000-00-00 00:01:17.565, 39.07, 0.7822, 0.6201, 0.0366, 0.3877, 0.3438, 0.1704, 0.11, 0.09, 0.04, 0, 0, 0, 2124.7, 2124.7, 15.8, 1.508, 3.329, 0.782, 0.011, 0.789, 0.139, 1.190, 0.533, -0.015, 0.078, 1.664, 0.000, 1.477, 3.497, 0.620, 0.008, 0.626, 0.147, 0.925, 0.634, 0.091, 0.069, 1.748, 0.000, 3.901, 3.422, 0.036, 0.001, 0.045, 1.214, 0.178, 5.169, 0.194, 4.348, 1.711, 0.043, 0.000, 0.000, 0.000, 3, 0, 3, 4, 3, 0, 0, 2, 0, 15, 34, 34, 16, 0, 6187, 3, 0, 3, 1, 3, 0, 0, 1, 0, 11, 14, 12, 9, 0, 4322, 9, 0, 9, 11, 5, 1, 4, 1, 0, 96, 226, 159, 34, 20, 1060,
 15:08:55.368,e36fca7b-ac85-42ee-9e80-64b80ac1a132, 2000-00-00 00:01:17.795, 39.08, 0.7822, 0.6201, 0.0366, 0.3770, 0.3413, 0.1650, 0.15, 0.12, 0.06, 0, 0, 0, 2156.4, 2156.4, 15.8, 1.466, 3.199, 0.782, 0.011, 0.790, 0.139, 1.159, 0.506, 0.015, 0.080, 1.599, 0.000, 1.457, 3.373, 0.620, 0.008, 0.626, 0.145, 0.913, 0.579, 0.100, 0.066, 1.686, 0.000, 3.652, 3.270, 0.036, 0.002, 0.046, 1.216, 0.171, 4.453, 0.076, 4.446, 1.635, 0.044, 0.000, 0.000, 0.000, 3, 0, 3, 4, 3, 1, 2, 1, 0, 11, 35, 38, 17, 6, 8299, 2, 0, 2, 3, 2, 1, 1, 1, 0, 5, 14, 15, 7, 3, 5828, 9, 0, 9, 12, 5, 3, 1, 2, 0, 85, 231, 174, 43, 16, 1025,
 15:08:55.611,e36fca7b-ac85-42ee-9e80-64b80ac1a132, 2000-00-00 00:01:18.030, 39.03, 0.7822, 0.6201, 0.0366, 0.3604, 0.3257, 0.1743, 0.11, 0.09, 0.04, 0, 0, 0, 2140.5, 2140.5, 15.8, 1.451, 2.994, 0.782, 0.012, 0.790, 0.142, 1.146, 0.472, 0.007, 0.081, 1.497, 0.000, 1.482, 3.186, 0.620, 0.008, 0.627, 0.151, 0.929, 0.567, 0.035, 0.069, 1.593, 0.000, 4.290, 3.377, 0.036, 0.002, 0.046, 1.214, 0.201, 5.233, -0.016, 4.431, 1.688, 0.044, 0.000, 0.000, 0.000, 3, 0, 3, 4, 2, 1, 2, 4, 0, 16, 33, 24, 8, 7, 4770, 1, 0, 1, 3, 4, 0, 0, 1, 0, 3, 14, 27, 16, 1, 3682, 9, 0, 9, 11, 7, 1, 1, 3, 0, 88, 225, 187, 52, 3, 914,
 15:08:55.854,e36fca7b-ac85-42ee-9e80-64b80ac1a132, 2000-00-00 00:01:18.270, 39.05, 0.7822, 0.6201, 0.0366, 0.3633, 0.3267, 0.1685, 0.11, 0.09, 0.04, 0, 0, 0, 2172.3, 2156.4, 15.8, 1.508, 3.130, 0.782, 0.012, 0.790, 0.142, 1.193, 0.536, -0.015, 0.080, 1.565, 0.000, 1.484, 3.421, 0.620, 0.009, 0.627, 0.154, 0.931, 0.576, 0.024, 0.069, 1.710, 0.000, 4.170, 3.455, 0.036, 0.001, 0.045, 1.218, 0.190, 5.007, 0.016, 4.322, 1.727, 0.043, 0.000, 0.000, 0.000, 4, 0, 4, 4, 2, 1, 2, 2, 0, 16, 33, 24, 9, 7, 4630, 2, 0, 2, 2, 2, 0, 1, 1, 0, 5, 12, 13, 6, 2, 4585, 10, 0, 10, 10, 6, 1, 1, 3, 0, 119, 233, 154, 43, 3, 1026,
 15:08:56.097,e36fca7b-ac85-42ee-9e80-64b80ac1a132, 2000-00-00 00:01:18.500, 39.05, 0.7822, 0.6201, 0.0366, 0.3608, 0.3237, 0.1704, 0.10, 0.09, 0.04, 0, 0, 0, 2156.4, 2172.3, 15.8, 1.435, 3.128, 0.782, 0.010, 0.790, 0.132, 1.134, 0.485, 0.070, 0.075, 1.564, 0.000, 1.455, 3.580, 0.620, 0.008, 0.626, 0.144, 0.911, 0.555, 0.043, 0.065, 1.790, 0.000, 4.254, 3.693, 0.036, 0.001, 0.045, 1.224, 0.195, 5.459, 0.107, 4.354, 1.846, 0.043, 0.000, 0.000, 0.000, 3, 0, 3, 4, 1, 2, 3, 3, 0, 11, 34, 23, 5, 14, 7658, 1, 0, 1, 3, 4, 0, 1, 1, 0, 3, 14, 27, 16, 2, 4960, 7, 0, 7, 13, 8, 2, 5, 0, 0, 55, 233, 248, 77, 37, 1139,
 15:08:56.342,e36fca7b-ac85-42ee-9e80-64b80ac1a132, 2000-00-00 00:01:18.735, 39.05, 0.7822, 0.6201, 0.0366, 0.3506, 0.3311, 0.1709, 0.10, 0.09, 0.04, 0, 0, 0, 2156.4, 2156.4, 15.8, 1.432, 2.957, 0.782, 0.011, 0.789, 0.137, 1.131, 0.450, 0.041, 0.078, 1.478, 0.000, 1.437, 3.365, 0.620, 0.008, 0.627, 0.149, 0.902, 0.624, 0.185, 0.067, 1.682, 0.000, 4.562, 3.749, 0.036, 0.002, 0.046, 1.241, 0.210, 5.955, 0.101, 4.421, 1.874, 0.044, 0.000, 0.000, 0.000, 3, 0, 3, 5, 2, 2, 2, 3, 0, 13, 40, 32, 14, 14, 5674, 2, 0, 2, 3, 2, 0, 1, 0, 0, 4, 13, 18, 9, 3, 4258, 11, 0, 11, 10, 2, 2, 2, 1, 0, 132, 243, 116, 9, 9, 990,
 15:08:56.584,e36fca7b-ac85-42ee-9e80-64b80ac1a132, 2000-00-00 00:01:18.970, 39.06, 0.7822, 0.6201, 0.0366, 0.3677, 0.3442, 0.1753, 0.11, 0.09, 0.04, 0, 0, 0, 2156.4, 2156.4, 15.8, 1.477, 2.976, 0.782, 0.012, 0.791, 0.143, 1.168, 0.511, 0.014, 0.081, 1.488, 0.000, 1.496, 3.377, 0.620, 0.009, 0.627, 0.155, 0.939, 0.649, 0.055, 0.069, 1.688, 0.000, 4.040, 3.272, 0.036, 0.001, 0.045, 1.225, 0.184, 4.909, 0.037, 4.337, 1.636, 0.043, 0.000, 0.000, 0.000, 2, 0, 2, 5, 4, 1, 2, 6, 0, 7, 33, 44, 20, 7, 6335, 1, 0, 1, 2, 1, 1, 0, 1, 0, 3, 12, 10, 4, 2, 4337, 7, 0, 7, 12, 2, 2, 2, 3, 0, 55, 221, 172, 12, 12, 1155,
 15:08:56.827,e36fca7b-ac85-42ee-9e80-64b80ac1a132, 2000-00-00 00:01:19.205, 39.07, 0.7822, 0.6201, 0.0366, 0.3828, 0.3555, 0.1646, 0.11, 0.09, 0.04, 0, 0, 0, 2172.3, 2140.5, 15.8, 1.485, 3.018, 0.782, 0.013, 0.791, 0.149, 1.174, 0.511, 0.055, 0.084, 1.509, 0.000, 1.529, 3.274, 0.620, 0.009, 0.627, 0.158, 0.960, 0.593, 0.068, 0.071, 1.637, 0.000, 3.719, 3.234, 0.036, 0.002, 0.047, 1.237, 0.177, 4.651, -0.085, 4.588, 1.617, 0.046, 0.000, 0.000, 0.000, 4, 0, 4, 3, 3, 1, 3, 3, 0, 21, 34, 25, 14, 15, 7495, 2, 0, 2, 2, 2, 0, 0, 1, 0, 7, 11, 11, 7, 0, 5251, 11, 0, 11, 10, 5, 1, 1, 1, 0, 138, 243, 141, 38, 5, 1068,
 15:08:57.074,e36fca7b-ac85-42ee-9e80-64b80ac1a132, 2000-00-00 00:01:19.440, 39.08, 0.7822, 0.6201, 0.0366, 0.4014, 0.3491, 0.1753, 0.11, 0.09, 0.04, 0, 0, 0, 2156.4, 2124.7, 15.8, 1.537, 2.991, 0.782, 0.015, 0.792, 0.156, 1.218, 0.583, 0.023, 0.087, 1.495, 0.000, 1.558, 3.307, 0.620, 0.010, 0.628, 0.163, 0.980, 0.617, 0.054, 0.073, 1.653, 0.000, 4.529, 3.437, 0.036, 0.002, 0.046, 1.230, 0.211, 5.504, -0.059, 4.484, 1.718, 0.045, 0.000, 0.000, 0.000, 2, 0, 2, 5, 2, 2, 4, 5, 0, 8, 35, 30, 8, 23, 7629, 1, 0, 1, 3, 3, 0, 0, 1, 0, 2, 14, 27, 16, 0, 4762, 7, 0, 7, 13, 9, 2, 2, 1, 0, 56, 241, 278, 100, 13, 1192,
 15:08:57.317,e36fca7b-ac85-42ee-9e80-64b80ac1a132, 2000-00-00 00:01:19.680, 39.08, 0.7822, 0.6201, 0.0366, 0.3818, 0.3442, 0.1763, 0.11, 0.09, 0.04, 0, 0, 0, 2156.4, 2140.5, 15.8, 1.465, 3.053, 0.782, 0.012, 0.790, 0.144, 1.158, 0.494, 0.075, 0.081, 1.526, 0.000, 1.494, 3.230, 0.620, 0.008, 0.627, 0.152, 0.937, 0.586, 0.030, 0.068, 1.615, 0.000, 4.157, 3.464, 0.036, 0.002, 0.046, 1.225, 0.194, 4.970, 0.054, 4.462, 1.732, 0.044, 0.000, 0.000, 0.000, 4, 0, 4, 3, 1, 2, 2, 4, 0, 20, 35, 18, 7, 12, 7305, 2, 0, 2, 2, 2, 0, 1, 0, 0, 5, 11, 10, 5, 3, 4258, 10, 0, 10, 11, 5, 1, 2, 0, 0, 108, 233, 152, 28, 8, 954,
 15:08:57.561,e36fca7b-ac85-42ee-9e80-64b80ac1a132, 2000-00-00 00:01:19.910, 39.06, 0.7822, 0.6201, 0.0366, 0.3779, 0.3418, 0.1738, 0.11, 0.09, 0.04, 0, 0, 0, 2124.7, 2124.7, 15.8, 1.480, 2.981, 0.782, 0.013, 0.790, 0.147, 1.170, 0.499, 0.053, 0.084, 1.490, 0.000, 1.532, 3.185, 0.620, 0.009, 0.627, 0.156, 0.961, 0.577, 0.057, 0.071, 1.592, 0.000, 4.007, 3.444, 0.036, 0.001, 0.045, 1.233, 0.183, 5.007, 0.025, 4.378, 1.722, 0.043, 0.000, 0.000, 0.000, 4, 0, 4, 4, 4, 1, 1, 5, 0, 17, 36, 40, 24, 6, 7319, 2, 0, 2, 3, 2, 0, 1, 0, 0, 4, 14, 17, 8, 4, 5136, 9, 0, 9, 12, 4, 3, 0, 0, 0, 86, 235, 171, 34, 12, 1041,
 15:08:57.804,e36fca7b-ac85-42ee-9e80-64b80ac1a132, 2000-00-00 00:01:20.145, 39.07, 0.7822, 0.6201, 0.0366, 0.3789, 0.3335, 0.1738, 0.15, 0.12, 0.06, 0, 0, 0, 2156.4, 2156.4, 15.8, 1.481, 2.938, 0.782, 0.014, 0.791, 0.151, 1.172, 0.505, 0.054, 0.085, 1.469, 0.000, 1.526, 3.105, 0.620, 0.010, 0.627, 0.160, 0.958, 0.562, 0.073, 0.072, 1.552, 0.000, 4.352, 3.496, 0.036, 0.002, 0.047, 1.225, 0.208, 5.340, -0.112, 4.516, 1.748, 0.045, 0.000, 0.000, 0.000, 5, 0, 5, 3, 3, 2, 2, 4, 0, 26, 38, 25, 19, 14, 8119, 2, 0, 2, 2, 3, 0, 0, 1, 0, 5, 13, 19, 11, 0, 6001, 9, 0, 9, 12, 7, 1, 1, 2, 0, 84, 232, 210, 65, 5, 1047,
 15:08:58.047,e36fca7b-ac85-42ee-9e80-64b80ac1a132, 2000-00-00 00:01:20.380, 39.07, 0.7822, 0.6201, 0.0366, 0.3833, 0.3467, 0.1782, 0.12, 0.10, 0.05, 0, 0, 0, 2140.5, 2140.5, 15.8, 1.443, 2.982, 0.782, 0.013, 0.790, 0.146, 1.140, 0.512, 0.023, 0.082, 1.491, 0.000, 1.549, 3.294, 0.620, 0.009, 0.627, 0.157, 0.972, 0.601, 0.039, 0.070, 1.647, 0.000, 3.783, 3.183, 0.036, 0.002, 0.047, 1.205, 0.178, 4.812, 0.017, 4.472, 1.591, 0.044, 0.000, 0.000, 0.000, 3, 0, 3, 4, 3, 1, 2, 5, 0, 13, 38, 39, 16, 6, 6777, 2, 0, 2, 2, 3, 0, 0, 1, 0, 4, 12, 17, 9, 0, 5349, 10, 0, 10, 10, 4, 3, 0, 2, 0, 100, 218, 137, 29, 9, 1007,
 15:08:58.288,e36fca7b-ac85-42ee-9e80-64b80ac1a132, 2000-00-00 00:01:20.615, 39.07, 0.7822, 0.6201, 0.0366, 0.4312, 0.3921, 0.1689, 0.16, 0.14, 0.06, 0, 0, 0, 2156.4, 2156.4, 15.8, 1.549, 3.425, 0.782, 0.014, 0.791, 0.153, 1.225, 0.595, 0.073, 0.086, 1.712, 0.000, 1.616, 3.625, 0.620, 0.010, 0.627, 0.162, 1.015, 0.739, 0.066, 0.072, 1.812, 0.000, 4.032, 3.469, 0.036, 0.002, 0.046, 1.233, 0.186, 5.023, 0.025, 4.408, 1.734, 0.044, 0.000, 0.000, 0.000, 2, 0, 2, 5, 5, 1, 4, 2, 0, 6, 38, 58, 29, 26, 8821, 2, 0, 2, 2, 1, 1, 0, 0, 0, 4, 11, 10, 4, 2, 5874, 8, 0, 8, 12, 5, 2, 5, 1, 0, 69, 227, 184, 31, 30, 1079,
 15:08:58.533,e36fca7b-ac85-42ee-9e80-64b80ac1a132, 2000-00-00 00:01:20.845, 39.07, 0.7822, 0.6201, 0.0366, 0.4243, 0.3975, 0.1743, 0.13, 0.11, 0.04, 0, 0, 0, 2140.5, 2140.5, 15.8, 1.496, 3.240, 0.782, 0.012, 0.790, 0.144, 1.183, 0.520, 0.005, 0.081, 1.620, 0.000, 1.540, 3.301, 0.620, 0.009, 0.627, 0.155, 0.966, 0.639, 0.003, 0.069, 1.650, 0.000, 3.970, 3.573, 0.036, 0.001, 0.046, 1.211, 0.183, 5.125, 0.118, 4.347, 1.786, 0.043, 0.000, 0.000, 0.000, 4, 0, 4, 4, 4, 0, 2, 4, 0, 19, 36, 34, 17, 8, 6091, 2, 0, 2, 3, 2, 0, 1, 0, 0, 4, 13, 16, 7, 2, 5245, 10, 0, 10, 10, 3, 2, 2, 1, 0, 105, 223, 133, 22, 14, 904,
 15:08:58.777,e36fca7b-ac85-42ee-9e80-64b80ac1a132, 2000-00-00 00:01:21.085, 39.08, 0.7822, 0.6201, 0.0366, 0.4009, 0.3574, 0.1772, 0.12, 0.10, 0.04, 0, 0, 0, 2140.5, 2140.5, 15.8, 1.507, 2.998, 0.782, 0.014, 0.790, 0.151, 1.192, 0.547, 0.041, 0.086, 1.499, 0.000, 1.507, 3.150, 0.620, 0.010, 0.627, 0.161, 0.946, 0.586, 0.025, 0.073, 1.575, 0.000, 4.257, 3.598, 0.036, 0.002, 0.046, 1.207, 0.198, 5.601, 0.195, 4.404, 1.799, 0.044, 0.000, 0.000, 0.000, 3, 0, 3, 4, 1, 1, 1, 2, 0, 10, 30, 23, 5, 4, 7093, 1, 0, 1, 2, 1, 1, 0, 1, 0, 3, 10, 10, 4, 1, 5968, 7, 0, 7, 12, 3, 3, 1, 4, 0, 55, 215, 170, 20, 13, 898,
 15:08:59.020,e36fca7b-ac85-42ee-9e80-64b80ac1a132, 2000-00-00 00:01:21.320, 39.08, 0.7822, 0.6201, 0.0366, 0.3892, 0.3477, 0.1655, 0.11, 0.10, 0.04, 0, 0, 0, 2140.5, 2140.5, 15.8, 1.522, 3.203, 0.782, 0.015, 0.792, 0.155, 1.207, 0.571, 0.036, 0.088, 1.601, 0.000, 1.550, 3.367, 0.620, 0.011, 0.629, 0.168, 0.975, 0.624, 0.010, 0.076, 1.683, 0.000, 3.917, 3.380, 0.036, 0.001, 0.046, 1.215, 0.181, 4.748, 0.087, 4.392, 1.690, 0.044, 0.000, 0.000, 0.000, 3, 0, 3, 5, 4, 1, 1, 3, 0, 11, 38, 51, 27, 4, 8227, 3, 0, 3, 1, 2, 0, 0, 0, 0, 9, 13, 10, 6, 1, 6788, 11, 0, 11, 10, 6, 1, 1, 3, 0, 133, 237, 147, 44, 5, 1149,
 15:08:59.261,e36fca7b-ac85-42ee-9e80-64b80ac1a132, 2000-00-00 00:01:21.555, 39.04, 0.7822, 0.6201, 0.0366, 0.3882, 0.3457, 0.1699, 0.11, 0.10, 0.04, 0, 0, 0, 2156.4, 2124.7, 15.8, 1.471, 2.995, 0.782, 0.013, 0.791, 0.146, 1.164, 0.499, -0.030, 0.082, 1.497, 0.000, 1.471, 3.116, 0.620, 0.009, 0.628, 0.159, 0.924, 0.608, 0.108, 0.071, 1.558, 0.000, 4.210, 3.549, 0.036, 0.002, 0.047, 1.219, 0.198, 5.032, 0.000, 4.467, 1.774, 0.044, 0.000, 0.000, 0.000, 2, 0, 2, 4, 2, 1, 2, 1, 0, 8, 32, 32, 11, 11, 5686, 1, 0, 1, 3, 3, 0, 0, 0, 0, 2, 12, 26, 16, 0, 4475, 7, 0, 7, 13, 9, 2, 3, 1, 0, 50, 231, 270, 98, 20, 1065,
 15:08:59.506,e36fca7b-ac85-42ee-9e80-64b80ac1a132, 2000-00-00 00:01:21.785, 39.07, 0.7822, 0.6201, 0.0366, 0.4058, 0.3638, 0.1675, 0.12, 0.10, 0.04, 0, 0, 0, 2124.7, 2124.7, 15.8, 1.523, 3.241, 0.782, 0.014, 0.791, 0.152, 1.206, 0.549, 0.022, 0.087, 1.620, 0.000, 1.631, 3.585, 0.620, 0.010, 0.628, 0.164, 1.025, 0.689, 0.005, 0.075, 1.792, 0.000, 3.980, 3.362, 0.036, 0.002, 0.046, 1.223, 0.184, 4.806, 0.029, 4.408, 1.681, 0.044, 0.000, 0.000, 0.000, 4, 0, 4, 3, 2, 0, 2, 2, 0, 22, 35, 19, 6, 4, 6195, 2, 0, 2, 2, 2, 0, 1, 1, 0, 7, 12, 13, 8, 1, 3852, 10, 0, 10, 10, 2, 1, 4, 2, 0, 115, 227, 117, 8, 20, 996,
 15:08:59.750,e36fca7b-ac85-42ee-9e80-64b80ac1a132, 2000-00-00 00:01:22.020, 39.03, 0.7822, 0.6201, 0.0366, 0.3911, 0.3604, 0.1660, 0.12, 0.10, 0.04, 0, 0, 0, 2140.5, 2172.3, 15.8, 1.457, 2.916, 0.782, 0.014, 0.792, 0.151, 1.154, 0.479, -0.020, 0.085, 1.458, 0.000, 1.542, 3.179, 0.620, 0.010, 0.628, 0.163, 0.969, 0.589, 0.024, 0.073, 1.589, 0.000, 3.919, 3.530, 0.036, 0.001, 0.044, 1.225, 0.175, 4.703, 0.024, 4.257, 1.765, 0.042, 0.000, 0.000, 0.000, 3, 0, 3, 4, 3, 1, 1, 0, 0, 9, 32, 37, 16, 5, 6030, 1, 0, 1, 3, 2, 1, 1, 0, 0, 4, 13, 14, 7, 3, 4374, 8, 0, 8, 12, 5, 3, 0, 3, 0, 75, 229, 179, 37, 11, 1046,
 15:08:59.994,e36fca7b-ac85-42ee-9e80-64b80ac1a132, 2000-00-00 00:01:22.255, 39.07, 0.7822, 0.6201, 0.0366, 0.3804, 0.3569, 0.1699, 0.11, 0.09, 0.04, 0, 0, 0, 2172.3, 2172.3, 15.8, 1.470, 3.223, 0.782, 0.012, 0.790, 0.142, 1.162, 0.486, 0.036, 0.080, 1.611, 0.000, 1.490, 3.363, 0.620, 0.008, 0.627, 0.152, 0.935, 0.601, 0.060, 0.067, 1.681, 0.000, 4.328, 3.816, 0.036, 0.001, 0.045, 1.242, 0.196, 5.593, 0.101, 4.362, 1.908, 0.043, 0.000, 0.000, 0.000, 3, 0, 3, 4, 4, 1, 0, 2, 0, 15, 35, 38, 20, 1, 6706, 3, 0, 3, 1, 2, 0, 0, 0, 0, 11, 14, 10, 7, 0, 4943, 11, 0, 11, 10, 6, 1, 1, 3, 0, 122, 230, 144, 39, 5, 948,
 15:09:00.237,e36fca7b-ac85-42ee-9e80-64b80ac1a132, 2000-00-00 00:01:22.490, 39.06, 0.7822, 0.6201, 0.0366, 0.3652, 0.3369, 0.1792, 0.11, 0.09, 0.04, 0, 0, 0, 2172.3, 2140.5, 15.8, 1.481, 3.034, 0.782, 0.012, 0.790, 0.140, 1.171, 0.499, 0.000, 0.079, 1.517, 0.000, 1.464, 3.123, 0.620, 0.008, 0.627, 0.149, 0.918, 0.566, 0.059, 0.067, 1.561, 0.000, 4.473, 3.725, 0.036, 0.002, 0.046, 1.235, 0.206, 5.703, 0.013, 4.416, 1.862, 0.044, 0.000, 0.000, 0.000, 3, 0, 3, 4, 3, 1, 1, 2, 0, 12, 36, 40, 17, 3, 7860, 1, 0, 1, 3, 3, 0, 0, 1, 0, 2, 12, 23, 13, 0, 5945, 8, 0, 8, 13, 9, 3, 1, 2, 0, 73, 246, 260, 95, 11, 1306,
 15:09:00.480,e36fca7b-ac85-42ee-9e80-64b80ac1a132, 2000-00-00 00:01:22.725, 39.05, 0.7822, 0.6201, 0.0366, 0.3931, 0.3389, 0.1694, 0.11, 0.09, 0.04, 0, 0, 0, 2172.3, 2172.3, 15.8, 1.493, 3.113, 0.782, 0.012, 0.790, 0.141, 1.181, 0.528, -0.004, 0.079, 1.556, 0.000, 1.513, 3.198, 0.620, 0.009, 0.627, 0.153, 0.949, 0.558, 0.032, 0.068, 1.599, 0.000, 3.787, 3.186, 0.036, 0.002, 0.046, 1.208, 0.177, 4.681, 0.187, 4.473, 1.593, 0.044, 0.000, 0.000, 0.000, 3, 0, 3, 4, 4, 0, 2, 1, 0, 11, 36, 42, 18, 4, 6167, 2, 0, 2, 2, 1, 1, 1, 0, 0, 4, 11, 10, 4, 5, 4809, 8, 0, 8, 12, 4, 2, 5, 2, 0, 72, 235, 185, 28, 32, 1058,
 15:09:00.725,e36fca7b-ac85-42ee-9e80-64b80ac1a132, 2000-00-00 00:01:22.960, 39.05, 0.7822, 0.6201, 0.0366, 0.3901, 0.3389, 0.1709, 0.11, 0.10, 0.04, 0, 0, 0, 2172.3, 2172.3, 15.8, 1.470, 3.006, 0.782, 0.013, 0.791, 0.150, 1.163, 0.544, 0.035, 0.084, 1.503, 0.000, 1.507, 3.083, 0.620, 0.010, 0.628, 0.161, 0.946, 0.554, 0.065, 0.071, 1.541, 0.000, 3.866, 3.518, 0.036, 0.002, 0.046, 1.251, 0.179, 4.953, -0.120, 4.450, 1.759, 0.044, 0.000, 0.000, 0.000, 4, 0, 4, 4, 4, 0, 0, 1, 0, 16, 35, 38, 19, 1, 7962, 2, 0, 2, 2, 2, 0, 1, 0, 0, 5, 12, 13, 6, 2, 5984, 11, 0, 11, 10, 2, 2, 3, 2, 0, 132, 235, 110, 10, 14, 1114,
 15:09:00.967,e36fca7b-ac85-42ee-9e80-64b80ac1a132, 2000-00-00 00:01:23.195, 39.05, 0.7822, 0.6201, 0.0366, 0.3936, 0.3477, 0.1680, 0.11, 0.10, 0.04, 0, 0, 0, 2172.3, 2172.3, 15.8, 1.430, 3.025, 0.782, 0.013, 0.790, 0.146, 1.131, 0.543, 0.045, 0.083, 1.512, 0.000, 1.469, 3.233, 0.620, 0.009, 0.628, 0.157, 0.923, 0.619, 0.044, 0.071, 1.616, 0.000, 3.884, 3.450, 0.036, 0.001, 0.045, 1.240, 0.177, 4.850, -0.047, 4.376, 1.725, 0.043, 0.000, 0.000, 0.000, 3, 0, 3, 4, 2, 0, 1, 1, 0, 10, 29, 24, 5, 1, 7548, 1, 0, 1, 3, 3, 0, 0, 1, 0, 2, 14, 23, 13, 0, 5455, 7, 0, 7, 12, 8, 0, 3, 3, 0, 56, 223, 237, 71, 15, 1031,
 15:09:01.210,e36fca7b-ac85-42ee-9e80-64b80ac1a132, 2000-00-00 00:01:23.430, 39.14, 0.7822, 0.6201, 0.0366, 0.3774, 0.3418, 0.1738, 0.11, 0.09, 0.04, 0, 0, 0, 2219.8, 2140.5, 15.8, 1.445, 3.188, 0.782, 0.010, 0.788, 0.133, 1.140, 0.499, 0.029, 0.075, 1.594, 0.000, 1.459, 3.265, 0.620, 0.008, 0.626, 0.146, 0.914, 0.573, 0.062, 0.066, 1.632, 0.000, 4.163, 3.636, 0.036, 0.002, 0.046, 1.237, 0.192, 5.028, -0.031, 4.405, 1.818, 0.044, 0.000, 0.000, 0.000, 5, 0, 5, 3, 2, 0, 2, 4, 0, 26, 37, 20, 8, 4, 5801, 2, 0, 2, 2, 3, 1, 0, 1, 0, 5, 12, 16, 10, 1, 3760, 10, 0, 10, 10, 5, 2, 1, 2, 0, 120, 227, 132, 33, 9, 1076,
 15:09:01.454,e36fca7b-ac85-42ee-9e80-64b80ac1a132, 2000-00-00 00:01:23.665, 39.10, 0.7822, 0.6201, 0.0366, 0.3779, 0.3257, 0.1753, 0.10, 0.09, 0.04, 0, 0, 0, 2156.4, 2156.4, 15.8, 1.455, 3.431, 0.782, 0.010, 0.789, 0.133, 1.149, 0.518, 0.020, 0.076, 1.715, 0.000, 1.491, 3.317, 0.620, 0.008, 0.626, 0.147, 0.934, 0.542, 0.029, 0.066, 1.658, 0.000, 4.114, 3.454, 0.036, 0.002, 0.045, 1.227, 0.188, 5.320, 0.112, 4.400, 1.727, 0.044, 0.000, 0.000, 0.000, 2, 0, 2, 5, 4, 0, 3, 1, 0, 9, 37, 51, 23, 13, 6653, 2, 0, 2, 2, 1, 1, 1, 0, 0, 4, 11, 10, 4, 4, 5238, 7, 0, 7, 12, 2, 3, 4, 3, 0, 60, 223, 171, 20, 28, 1112,
 15:09:01.699,e36fca7b-ac85-42ee-9e80-64b80ac1a132, 2000-00-00 00:01:23.905, 39.10, 0.7822, 0.6201, 0.0366, 0.3984, 0.3281, 0.1807, 0.11, 0.09, 0.04, 0, 0, 0, 2124.7, 2172.3, 15.8, 1.479, 3.209, 0.782, 0.012, 0.789, 0.142, 1.169, 0.514, 0.031, 0.078, 1.604, 0.000, 1.472, 3.201, 0.620, 0.008, 0.627, 0.151, 0.923, 0.541, 0.060, 0.065, 1.600, 0.000, 3.985, 3.576, 0.036, 0.002, 0.048, 1.219, 0.194, 4.959, 0.152, 4.620, 1.788, 0.046, 0.000, 0.000, 0.000, 4, 0, 4, 3, 3, 0, 2, 4, 0, 18, 33, 30, 15, 7, 5916, 2, 0, 2, 1, 2, 0, 1, 0, 0, 8, 12, 7, 4, 1, 4168, 11, 0, 11, 10, 2, 0, 2, 1, 0, 133, 234, 108, 7, 8, 994,
 15:09:01.942,e36fca7b-ac85-42ee-9e80-64b80ac1a132, 2000-00-00 00:01:24.140, 39.05, 0.7822, 0.6196, 0.0366, 0.3633, 0.2979, 0.1494, 0.12, 0.10, 0.04, 0, 0, 0, 2172.3, 2172.3, 15.8, 1.506, 2.870, 0.782, 0.016, 0.791, 0.162, 1.192, 0.530, 0.002, 0.092, 1.435, 0.000, 1.459, 3.000, 0.620, 0.011, 0.628, 0.170, 0.917, 0.579, 0.005, 0.076, 1.500, 0.000, 3.482, 3.395, 0.037, 0.001, 0.049, 1.142, 0.170, 4.152, 0.041, 4.378, 1.697, 0.043, 0.000, 0.000, 0.000, 3, 0, 3, 4, 2, 0, 0, 4, 0, 9, 30, 29, 8, 0, 8562, 1, 0, 1, 3, 3, 0, 1, 1, 0, 3, 12, 20, 11, 2, 6189, 8, 0, 8, 12, 4, 2, 1, 2, 0, 67, 225, 177, 28, 12, 1038,
 15:09:02.187,e36fca7b-ac85-42ee-9e80-64b80ac1a132, 2000-00-00 00:01:24.375, 39.06, 0.7822, 0.6196, 0.0366, 0.3721, 0.3208, 0.1641, 0.18, 0.15, 0.06, 0, 0, 0, 2140.5, 2140.5, 15.8, 1.449, 2.928, 0.782, 0.013, 0.791, 0.148, 1.147, 0.508, 0.054, 0.259, 1.464, 0.000, 1.446, 3.131, 0.620, 0.010, 0.627, 0.161, 0.907, 0.584, 0.027, 0.072, 1.565, 0.000, 4.749, 3.803, 0.037, 0.002, 0.048, 1.212, 0.229, 5.764, -0.184, 4.528, 1.901, 0.045, 0.000, 0.000, 0.000, 3, 0, 3, 4, 4, 1, 2, 4, 0, 14, 35, 43, 24, 7, 6838, 3, 0, 3, 1, 3, 0, 1, 1, 0, 14, 17, 12, 10, 1, 5174, 10, 0, 10, 11, 5, 2, 3, 1, 0, 113, 240, 155, 35, 20, 1169,
 15:09:02.431,e36fca7b-ac85-42ee-9e80-64b80ac1a132, 2000-00-00 00:01:24.610, 39.07, 0.7822, 0.6201, 0.0371, 0.3794, 0.3413, 0.1611, 0.14, 0.12, 0.05, 0, 0, 0, 2156.4, 2156.4, 15.8, 1.455, 2.973, 0.782, 0.016, 0.793, 0.161, 1.154, 0.524, 0.018, 0.091, 1.486, 0.000, 1.529, 3.028, 0.620, 0.012, 0.631, 0.177, 0.966, 0.580, 0.061, 0.079, 1.514, 0.000, 3.571, 3.380, 0.037, 0.002, 0.049, 1.238, 0.175, 4.342, 0.020, 4.743, 1.690, 0.047, 0.000, 0.000, 0.000, 2, 0, 2, 5, 3, 2, 4, 2, 0, 7, 36, 39, 17, 24, 9396, 1, 0, 1, 3, 3, 0, 0, 1, 0, 3, 13, 19, 10, 1, 6831, 8, 0, 8, 13, 9, 3, 0, 0, 0, 74, 245, 253, 92, 10, 1254,
 15:09:02.674,e36fca7b-ac85-42ee-9e80-64b80ac1a132, 2000-00-00 00:01:24.845, 39.07, 0.7822, 0.6201, 0.0371, 0.3760, 0.3315, 0.1670, 0.12, 0.10, 0.04, 0, 0, 0, 2140.5, 2140.5, 15.8, 1.410, 2.924, 0.782, 0.013, 0.790, 0.145, 1.116, 0.482, 0.087, 0.080, 1.462, 0.000, 1.472, 2.977, 0.620, 0.009, 0.628, 0.158, 0.925, 0.519, 0.056, 0.069, 1.488, 0.000, 4.184, 3.575, 0.037, 0.002, 0.047, 1.240, 0.200, 5.123, 0.054, 4.605, 1.787, 0.046, 0.000, 0.000, 0.000, 3, 0, 3, 4, 1, 1, 3, 6, 0, 14, 35, 22, 3, 16, 5225, 2, 0, 2, 2, 3, 0, 0, 2, 0, 6, 13, 16, 9, 0, 4276, 9, 0, 9, 11, 3, 1, 3, 2, 0, 89, 227, 152, 18, 16, 964,
 15:09:02.917,e36fca7b-ac85-42ee-9e80-64b80ac1a132, 2000-00-00 00:01:25.080, 39.06, 0.7822, 0.6201, 0.0371, 0.3887, 0.3501, 0.1714, 0.12, 0.10, 0.04, 0, 0, 0, 2156.4, 2156.4, 15.8, 1.495, 3.238, 0.782, 0.014, 0.791, 0.151, 1.183, 0.558, 0.028, 0.086, 1.619, 0.000, 1.546, 3.189, 0.620, 0.010, 0.629, 0.166, 0.973, 0.654, 0.082, 0.073, 1.594, 0.000, 4.056, 3.597, 0.037, 0.002, 0.047, 1.240, 0.192, 4.956, -0.149, 4.542, 1.798, 0.045, 0.000, 0.000, 0.000, 3, 0, 3, 4, 2, 1, 2, 4, 0, 13, 31, 26, 10, 7, 7838, 2, 0, 2, 2, 2, 0, 1, 0, 0, 4, 13, 15, 7, 2, 5460, 9, 0, 9, 12, 4, 3, 0, 2, 0, 89, 236, 170, 33, 11, 1159,
 15:09:03.160,e36fca7b-ac85-42ee-9e80-64b80ac1a132, 2000-00-00 00:01:25.310, 39.07, 0.7822, 0.6201, 0.0371, 0.4126, 0.3618, 0.1792, 0.11, 0.10, 0.04, 0, 0, 0, 2156.4, 2156.4, 15.8, 1.485, 3.135, 0.782, 0.014, 0.790, 0.151, 1.174, 0.562, 0.042, 0.085, 1.567, 0.000, 1.478, 3.227, 0.620, 0.010, 0.628, 0.161, 0.928, 0.650, 0.129, 0.071, 1.613, 0.000, 4.999, 3.965, 0.037, 0.002, 0.047, 1.254, 0.240, 6.245, -0.166, 4.594, 1.982, 0.046, 0.000, 0.000, 0.000, 3, 0, 3, 4, 4, 2, 2, 6, 0, 15, 38, 45, 26, 11, 6772, 2, 0, 2, 2, 1, 0, 1, 0, 0, 6, 11, 9, 4, 2, 5112, 9, 0, 9, 11, 3, 2, 4, 2, 0, 83, 222, 154, 21, 23, 944,
 15:09:03.403,e36fca7b-ac85-42ee-9e80-64b80ac1a132, 2000-00-00 00:01:25.545, 39.08, 0.7822, 0.6201, 0.0371, 0.3271, 0.2891, 0.1411, 0.11, 0.09, 0.04, 0, 0, 0, 2172.3, 2172.3, 586.6, 1.327, 2.855, 0.782, 0.011, 0.791, 0.132, 1.051, 0.366, -0.028, 0.075, 1.427, 0.000, 1.398, 3.323, 0.620, 0.007, 0.630, 0.141, 0.881, 0.426, -0.022, 0.064, 1.661, 0.000, 2.972, 3.273, 0.037, 0.001, 0.046, 1.128, 0.138, 3.405, -0.098, 0.111, 1.636, 0.000, 0.000, 0.000, 0.000, 3, 0, 3, 5, 4, 2, 3, 4, 0, 9, 40, 49, 25, 17, 4687, 1, 0, 1, 3, 3, 1, 1, 0, 0, 3, 13, 19, 11, 2, 3874, 10, 0, 10, 10, 4, 3, 1, 0, 0, 119, 228, 130, 31, 11, 1197,
 15:09:03.646,e36fca7b-ac85-42ee-9e80-64b80ac1a132, 2000-00-00 00:01:25.785, 39.08, 0.7822, 0.6196, 0.0371, 0.3550, 0.3188, 0.1343, 0.12, 0.10, 0.04, 0, 0, 0, 2299.1, 2093.0, 15.8, 1.439, 3.165, 0.782, 0.013, 0.789, 0.149, 1.137, 0.539, 0.048, 0.079, 1.582, 0.000, 1.558, 3.355, 0.620, 0.010, 0.626, 0.161, 0.976, 0.588, -0.031, 0.074, 1.677, 0.000, 3.480, 3.194, 0.037, 0.002, 0.048, 1.181, 0.168, 4.111, 0.016, 4.484, 1.597, 0.045, 0.000, 0.000, 0.000, 2, 0, 2, 5, 4, 1, 3, 4, 0, 6, 34, 45, 19, 13, 4650, 1, 0, 1, 2, 1, 1, 0, 1, 0, 3, 11, 10, 5, 3, 3839, 7, 0, 7, 12, 3, 3, 3, 1, 0, 52, 217, 175, 21, 25, 1079,
 15:09:03.892,e36fca7b-ac85-42ee-9e80-64b80ac1a132, 2000-00-00 00:01:26.015, 39.10, 0.7822, 0.6201, 0.0371, 0.3765, 0.3276, 0.1646, 0.11, 0.10, 0.04, 0, 0, 0, 2156.4, 2156.4, 15.8, 1.447, 3.155, 0.782, 0.012, 0.790, 0.143, 1.144, 0.498, 0.064, 0.080, 1.577, 0.000, 1.521, 3.176, 0.620, 0.009, 0.627, 0.155, 0.954, 0.557, -0.039, 0.069, 1.588, 0.000, 4.424, 3.565, 0.037, 0.001, 0.045, 1.221, 0.202, 5.728, 0.118, 4.355, 1.782, 0.043, 0.000, 0.000, 0.000, 5, 0, 5, 3, 2, 1, 4, 3, 0, 27, 37, 18, 9, 22, 7474, 2, 0, 2, 2, 2, 0, 1, 0, 0, 8, 14, 10, 4, 1, 5614, 11, 0, 11, 10, 2, 1, 2, 1, 0, 129, 231, 108, 9, 10, 1055,
 15:09:04.141,e36fca7b-ac85-42ee-9e80-64b80ac1a132, 2000-00-00 00:01:26.255, 39.10, 0.7822, 0.6196, 0.0371, 0.3887, 0.3306, 0.1631, 0.11, 0.09, 0.04, 0, 0, 0, 2156.4, 2172.3, 15.8, 1.549, 3.240, 0.782, 0.012, 0.789, 0.145, 1.223, 0.577, -0.025, 0.082, 1.620, 0.000, 1.519, 3.227, 0.620, 0.009, 0.627, 0.156, 0.953, 0.574, 0.067, 0.069, 1.613, 0.000, 4.009, 3.486, 0.037, 0.001, 0.046, 1.215, 0.186, 5.006, -0.015, 4.394, 1.743, 0.044, 0.000, 0.000, 0.000, 2, 0, 2, 5, 2, 1, 3, 5, 0, 8, 33, 31, 8, 18, 6639, 1, 0, 1, 3, 3, 0, 0, 1, 0, 3, 13, 21, 11, 0, 4481, 7, 0, 7, 13, 8, 2, 2, 3, 0, 53, 230, 251, 78, 9, 1051,
 15:09:04.383,e36fca7b-ac85-42ee-9e80-64b80ac1a132, 2000-00-00 00:01:26.490, 39.09, 0.7822, 0.6196, 0.0371, 0.3804, 0.3413, 0.1689, 0.11, 0.09, 0.04, 0, 0, 0, 2172.3, 2172.3, 15.8, 1.478, 3.074, 0.782, 0.012, 0.789, 0.143, 1.167, 0.497, 0.033, 0.081, 1.537, 0.000, 1.500, 3.212, 0.620, 0.009, 0.627, 0.156, 0.941, 0.606, 0.093, 0.070, 1.606, 0.000, 4.377, 3.534, 0.037, 0.001, 0.045, 1.236, 0.201, 5.343, -0.107, 4.389, 1.767, 0.044, 0.000, 0.000, 0.000, 4, 0, 4, 4, 2, 2, 2, 2, 0, 16, 34, 24, 10, 9, 7648, 2, 0, 2, 2, 3, 0, 0, 0, 0, 5, 13, 18, 10, 0, 5001, 11, 0, 11, 10, 4, 2, 0, 2, 0, 139, 244, 128, 32, 9, 1279,
 15:09:04.627,e36fca7b-ac85-42ee-9e80-64b80ac1a132, 2000-00-00 00:01:26.725, 39.09, 0.7822, 0.6201, 0.0371, 0.3916, 0.3535, 0.1797, 0.11, 0.09, 0.04, 0, 0, 0, 2140.5, 2140.5, 15.8, 1.462, 3.105, 0.782, 0.012, 0.790, 0.145, 1.156, 0.539, 0.072, 0.082, 1.552, 0.000, 1.557, 3.302, 0.620, 0.009, 0.627, 0.156, 0.977, 0.599, 0.031, 0.069, 1.651, 0.000, 4.290, 3.594, 0.037, 0.002, 0.047, 1.221, 0.204, 5.227, 0.083, 4.513, 1.797, 0.045, 0.000, 0.000, 0.000, 2, 0, 2, 5, 4, 0, 0, 6, 0, 6, 32, 42, 17, 0, 6151, 1, 0, 1, 2, 2, 1, 0, 0, 0, 2, 11, 14, 7, 2, 4498, 7, 0, 7, 12, 1, 4, 2, 1, 0, 56, 213, 157, 22, 27, 1107,
 15:09:04.869,e36fca7b-ac85-42ee-9e80-64b80ac1a132, 2000-00-00 00:01:26.960, 39.08, 0.7822, 0.6201, 0.0371, 0.3979, 0.3550, 0.1777, 0.11, 0.10, 0.04, 0, 0, 0, 2093.0, 2045.4, 15.8, 1.475, 3.343, 0.782, 0.013, 0.790, 0.147, 1.166, 0.558, 0.039, 0.083, 1.671, 0.000, 1.571, 3.464, 0.620, 0.009, 0.627, 0.158, 0.986, 0.611, 0.035, 0.071, 1.732, 0.000, 3.954, 3.664, 0.037, 0.002, 0.047, 1.222, 0.189, 5.127, 0.211, 4.532, 1.832, 0.045, 0.000, 0.000, 0.000, 4, 0, 4, 3, 3, 1, 2, 1, 0, 20, 36, 26, 11, 8, 4103, 3, 0, 3, 2, 2, 0, 0, 0, 0, 9, 13, 9, 4, 0, 3394, 10, 0, 10, 10, 2, 1, 2, 3, 0, 119, 225, 114, 10, 7, 928,
 15:09:05.112,e36fca7b-ac85-42ee-9e80-64b80ac1a132, 2000-00-00 00:01:27.195, 39.06, 0.7822, 0.6201, 0.0371, 0.4282, 0.3447, 0.1831, 0.11, 0.09, 0.04, 0, 0, 0, 2156.4, 2156.4, 15.8, 1.500, 3.336, 0.782, 0.012, 0.791, 0.144, 1.186, 0.551, 0.035, 0.081, 1.668, 0.000, 1.508, 3.368, 0.620, 0.009, 0.627, 0.154, 0.946, 0.558, 0.032, 0.068, 1.684, 0.000, 3.975, 3.526, 0.037, 0.001, 0.045, 1.226, 0.181, 5.137, 0.075, 4.328, 1.763, 0.043, 0.000, 0.000, 0.000, 3, 0, 3, 4, 3, 1, 2, 2, 0, 9, 33, 38, 16, 8, 8722, 1, 0, 1, 3, 2, 0, 1, 0, 0, 3, 13, 18, 9, 4, 5953, 10, 0, 10, 10, 5, 1, 2, 4, 0, 105, 221, 141, 29, 9, 1011,
 15:09:05.356,e36fca7b-ac85-42ee-9e80-64b80ac1a132, 2000-00-00 00:01:27.430, 39.03, 0.7822, 0.6201, 0.0371, 0.3931, 0.3237, 0.1743, 0.11, 0.09, 0.04, 0, 0, 0, 2156.4, 2156.4, 15.8, 1.477, 3.103, 0.782, 0.013, 0.791, 0.148, 1.169, 0.504, -0.026, 0.084, 1.551, 0.000, 1.454, 3.144, 0.620, 0.009, 0.627, 0.158, 0.913, 0.565, 0.091, 0.072, 1.572, 0.000, 3.822, 3.484, 0.037, 0.002, 0.046, 1.216, 0.177, 5.099, 0.090, 4.400, 1.742, 0.044, 0.000, 0.000, 0.000, 3, 0, 3, 5, 5, 0, 1, 0, 0, 10, 35, 50, 25, 4, 8869, 2, 0, 2, 2, 2, 0, 1, 0, 0, 8, 12, 10, 6, 1, 5516, 8, 0, 8, 11, 4, 2, 5, 2, 0, 79, 216, 159, 31, 34, 1069,
 15:09:05.600,e36fca7b-ac85-42ee-9e80-64b80ac1a132, 2000-00-00 00:01:27.665, 39.08, 0.7822, 0.6201, 0.0371, 0.3594, 0.3047, 0.1514, 0.11, 0.09, 0.04, 0, 0, 0, 2124.7, 2140.5, 15.8, 1.389, 2.660, 0.782, 0.013, 0.786, 0.149, 1.093, 0.408, -0.108, 0.085, 1.330, 0.000, 1.378, 2.970, 0.620, 0.009, 0.625, 0.156, 0.862, 0.462, 0.054, 0.070, 1.485, 0.000, 3.384, 3.639, 0.037, 0.001, 0.045, 1.098, 0.151, 3.770, 0.177, 3.942, 1.819, 0.039, 0.000, 0.000, 0.000, 4, 0, 4, 3, 4, 0, 2, 1, 0, 24, 38, 32, 18, 5, 7946, 2, 0, 2, 2, 2, 0, 1, 1, 0, 4, 13, 15, 7, 1, 5649, 9, 0, 9, 11, 7, 2, 1, 2, 0, 95, 234, 201, 68, 10, 1307,
 15:09:05.843,e36fca7b-ac85-42ee-9e80-64b80ac1a132, 2000-00-00 00:01:27.900, 39.13, 0.7822, 0.6196, 0.0376, 0.3354, 0.2817, 0.1377, 0.11, 0.09, 0.04, 0, 0, 0, 2172.3, 2172.3, 15.8, 1.336, 2.918, 0.782, 0.011, 0.790, 0.139, 1.055, 0.410, 0.131, 0.078, 1.459, 0.000, 1.347, 2.713, 0.620, 0.009, 0.626, 0.155, 0.844, 0.437, 0.106, 0.068, 1.356, 0.000, 2.610, 3.774, 0.037, 0.001, 0.050, 0.987, 0.131, 3.357, -0.159, 3.882, 1.887, 0.038, 0.000, 0.000, 0.000, 3, 0, 3, 4, 1, 1, 2, 0, 0, 10, 32, 24, 3, 6, 6329, 1, 0, 1, 3, 3, 0, 0, 0, 0, 2, 12, 24, 14, 0, 4411, 8, 0, 8, 12, 5, 1, 2, 4, 0, 64, 224, 190, 32, 9, 1167,
 15:09:06.086,e36fca7b-ac85-42ee-9e80-64b80ac1a132, 2000-00-00 00:01:28.135, 39.11, 0.7817, 0.6196, 0.0376, 0.3066, 0.2617, 0.1304, 0.11, 0.09, 0.04, 0, 0, 0, 2140.5, 2172.3, 697.6, 1.281, 2.919, 0.782, 0.008, 0.785, 0.116, 1.006, 0.330, -0.056, 0.066, 1.459, 0.000, 1.332, 3.411, 0.620, 0.006, 0.625, 0.128, 0.833, 0.391, 0.110, 0.057, 1.705, 0.000, 3.177, 3.379, 0.037, 0.001, 0.042, 1.181, 0.135, 3.775, 0.290, 0.089, 1.689, 0.000, 0.000, 0.000, 0.000, 3, 0, 3, 4, 2, 2, 0, 0, 0, 14, 34, 25, 9, 4, 7357, 2, 0, 2, 2, 2, 0, 1, 0, 0, 7, 15, 15, 8, 1, 4929, 10, 0, 10, 10, 4, 1, 2, 3, 0, 113, 226, 132, 21, 11, 1184,
 15:09:06.329,e36fca7b-ac85-42ee-9e80-64b80ac1a132, 2000-00-00 00:01:28.370, 39.10, 0.7817, 0.6196, 0.0376, 0.2822, 0.2544, 0.1367, 0.10, 0.08, 0.04, 0, 0, 0, 2156.4, 2156.4, 15.8, 1.355, 3.521, 0.782, 0.010, 0.787, 0.131, 1.067, 0.387, 0.008, 0.074, 1.760, 0.000, 1.394, 3.782, 0.620, 0.007, 0.626, 0.140, 0.873, 0.439, 0.063, 0.063, 1.891, 0.000, 2.902, 2.957, 0.038, 0.002, 0.054, 1.028, 0.158, 3.145, 0.075, 4.502, 1.478, 0.045, 0.000, 0.000, 0.000, 2, 0, 2, 5, 4, 0, 1, 2, 0, 8, 35, 51, 24, 1, 6475, 2, 0, 2, 2, 1, 0, 0, 1, 0, 5, 12, 11, 4, 1, 4693, 7, 0, 7, 12, 1, 3, 5, 1, 0, 54, 210, 157, 14, 39, 1125,
 15:09:06.572,e36fca7b-ac85-42ee-9e80-64b80ac1a132, 2000-00-00 00:01:28.605, 39.10, 0.7817, 0.6196, 0.0381, 0.3438, 0.2959, 0.1548, 0.18, 0.15, 0.07, 0, 0, 0, 2156.4, 2156.4, 697.6, 1.397, 3.173, 0.782, 0.012, 0.790, 0.141, 1.105, 0.485, 0.122, 0.080, 1.586, 0.000, 1.430, 3.207, 0.620, 0.007, 0.625, 0.135, 0.895, 0.461, -0.156, 0.060, 1.603, 0.000, 3.357, 3.380, 0.038, 0.002, 0.055, 1.191, 0.184, 4.067, 0.109, 0.116, 1.690, 0.000, 0.000, 0.000, 0.000, 3, 0, 3, 4, 4, 1, 1, 2, 0, 14, 37, 40, 20, 4, 7752, 2, 0, 2, 2, 2, 0, 1, 2, 0, 6, 11, 12, 7, 2, 4661, 10, 0, 10, 11, 5, 2, 3, 2, 0, 109, 233, 154, 37, 16, 1362,
 15:09:06.817,e36fca7b-ac85-42ee-9e80-64b80ac1a132, 2000-00-00 00:01:28.840, 39.09, 0.7822, 0.6201, 0.0386, 0.2983, 0.2598, 0.1333, 0.21, 0.18, 0.08, 0, 0, 0, 2140.5, 2140.5, 15.8, 1.350, 2.609, 0.782, 0.013, 0.791, 0.150, 1.069, 0.406, 0.080, 0.085, 1.304, 0.000, 1.351, 2.904, 0.620, 0.009, 0.632, 0.152, 0.854, 0.449, 0.232, 0.069, 1.452, 0.000, 3.108, 3.388, 0.038, 0.003, 0.057, 1.125, 0.172, 3.768, -0.298, 5.193, 1.694, 0.052, 0.000, 0.000, 0.000, 2, 0, 2, 5, 3, 1, 2, 2, 0, 8, 35, 42, 18, 9, 5837, 1, 0, 1, 2, 1, 1, 1, 1, 0, 3, 12, 12, 6, 3, 4683, 8, 0, 8, 12, 1, 4, 0, 2, 0, 68, 223, 158, 20, 19, 1164,
 15:09:07.060,e36fca7b-ac85-42ee-9e80-64b80ac1a132, 2000-00-00 00:01:29.075, 39.11, 0.7822, 0.6201, 0.0391, 0.3057, 0.2598, 0.1318, 0.16, 0.13, 0.07, 0, 0, 0, 2156.4, 2172.3, 697.6, 1.319, 2.777, 0.782, 0.012, 0.791, 0.142, 1.043, 0.361, 0.047, 0.080, 1.388, 0.000, 1.394, 2.967, 0.620, 0.009, 0.630, 0.154, 0.879, 0.434, 0.011, 0.068, 1.483, 0.000, 2.613, 2.688, 0.039, 0.001, 0.047, 1.111, 0.124, 3.335, -0.027, 0.096, 1.344, 0.000, 0.000, 0.000, 0.000, 4, 0, 4, 4, 3, 0, 2, 2, 0, 18, 34, 29, 13, 6, 7706, 2, 0, 2, 2, 2, 0, 0, 1, 0, 8, 12, 9, 4, 0, 5713, 11, 0, 11, 10, 3, 1, 0, 3, 0, 127, 236, 118, 12, 4, 1584,
 15:09:07.304,e36fca7b-ac85-42ee-9e80-64b80ac1a132, 2000-00-00 00:01:29.310, 39.08, 0.7822, 0.6201, 0.0396, 0.2969, 0.2578, 0.1313, 0.18, 0.16, 0.07, 0, 0, 0, 2156.4, 2156.4, 697.6, 1.344, 2.365, 0.782, 0.016, 0.792, 0.163, 1.066, 0.397, 0.053, 0.092, 1.182, 0.000, 1.423, 2.715, 0.620, 0.010, 0.629, 0.166, 0.896, 0.470, -0.201, 0.074, 1.357, 0.000, 3.001, 3.727, 0.039, 0.002, 0.055, 1.183, 0.168, 3.936, -0.268, 0.117, 1.863, 0.000, 0.000, 0.000, 0.000, 3, 0, 3, 4, 3, 1, 2, 4, 0, 9, 32, 35, 13, 6, 9110, 1, 0, 1, 2, 3, 0, 0, 0, 0, 2, 11, 19, 10, 0, 6130, 7, 0, 7, 13, 8, 3, 2, 2, 0, 59, 238, 244, 79, 19, 1268,
 15:09:07.546,e36fca7b-ac85-42ee-9e80-64b80ac1a132, 2000-00-00 00:01:29.545, 39.08, 0.7822, 0.6201, 0.0396, 0.2900, 0.2456, 0.1318, 0.22, 0.18, 0.09, 0, 0, 0, 697.6, 2140.5, 570.8, 1.385, 3.416, 0.782, 0.013, 0.793, 0.148, 1.099, 0.444, 0.124, 0.260, 1.708, 0.000, 1.392, 3.223, 0.620, 0.011, 0.633, 0.168, 0.881, 0.502, 0.108, 0.076, 1.611, 0.000, 2.836, 3.449, 0.039, 0.002, 0.052, 1.171, 0.147, 3.480, 0.216, 0.132, 1.724, 0.000, 0.000, 0.000, 0.000, 4, 0, 4, 4, 2, 2, 2, 2, 0, 16, 33, 23, 10, 11, 6891, 2, 0, 2, 2, 3, 0, 2, 1, 0, 6, 14, 18, 11, 4, 4789, 9, 0, 9, 11, 6, 2, 3, 1, 0, 95, 232, 182, 50, 19, 1500,
 15:09:07.790,e36fca7b-ac85-42ee-9e80-64b80ac1a132, 2000-00-00 00:01:29.780, 39.08, 0.7822, 0.6201, 0.0396, 0.3032, 0.2480, 0.1294, 0.19, 0.15, 0.07, 0, 0, 0, 697.6, 2140.5, 697.6, 1.406, 2.388, 0.782, 0.020, 0.795, 0.180, 1.119, 0.445, -0.052, 0.314, 1.194, 0.000, 1.410, 2.564, 0.620, 0.014, 0.635, 0.187, 0.896, 0.463, 0.117, 0.085, 1.282, 0.000, 2.827, 3.052, 0.039, 0.001, 0.047, 1.120, 0.135, 3.206, 0.241, 0.095, 1.526, 0.000, 0.000, 0.000, 0.000, 3, 0, 3, 4, 3, 2, 1, 5, 0, 11, 33, 31, 14, 7, 8393, 1, 0, 1, 2, 3, 1, 1, 0, 0, 3, 12, 18, 10, 2, 4946, 9, 0, 9, 11, 1, 4, 1, 2, 0, 83, 224, 143, 19, 20, 1200,
 15:09:08.033,e36fca7b-ac85-42ee-9e80-64b80ac1a132, 2000-00-00 00:01:30.015, 39.07, 0.7822, 0.6201, 0.0396, 0.3057, 0.2559, 0.1182, 0.15, 0.13, 0.05, 0, 0, 0, 2172.3, 2172.3, 697.6, 1.367, 2.525, 0.782, 0.017, 0.797, 0.165, 1.090, 0.443, 0.097, 0.093, 1.262, 0.000, 1.398, 2.568, 0.620, 0.012, 0.635, 0.179, 0.888, 0.439, -0.023, 0.081, 1.284, 0.000, 2.872, 3.197, 0.039, 0.001, 0.046, 1.142, 0.133, 3.534, 0.008, 0.093, 1.598, 0.000, 0.000, 0.000, 0.000, 4, 0, 4, 4, 3, 1, 2, 4, 0, 17, 36, 33, 16, 7, 6415, 2, 0, 2, 2, 1, 0, 0, 1, 0, 5, 11, 10, 4, 1, 5055, 10, 0, 10, 11, 3, 2, 2, 2, 0, 111, 240, 139, 14, 12, 1245,
 15:09:08.278,e36fca7b-ac85-42ee-9e80-64b80ac1a132, 2000-00-00 00:01:30.250, 39.07, 0.7822, 0.6201, 0.0400, 0.3193, 0.2749, 0.1250, 0.17, 0.14, 0.06, 0, 0, 0, 2140.5, 2140.5, 697.6, 1.424, 3.017, 0.782, 0.017, 0.796, 0.167, 1.134, 0.473, 0.062, 0.096, 1.508, 0.000, 1.435, 3.275, 0.620, 0.012, 0.632, 0.177, 0.908, 0.510, 0.116, 0.080, 1.637, 0.000, 3.188, 3.667, 0.040, 0.001, 0.047, 1.178, 0.153, 4.072, -0.486, 0.097, 1.833, 0.000, 0.000, 0.000, 0.000, 4, 0, 4, 4, 3, 1, 3, 6, 0, 16, 35, 28, 10, 10, 9576, 2, 0, 2, 2, 2, 0, 0, 1, 0, 6, 12, 13, 8, 0, 6838, 10, 0, 10, 10, 5, 1, 1, 1, 0, 111, 229, 146, 31, 4, 1143,
 15:09:08.520,e36fca7b-ac85-42ee-9e80-64b80ac1a132, 2000-00-00 00:01:30.490, 39.13, 0.7827, 0.6201, 0.0396, 0.3032, 0.2832, 0.1309, 0.13, 0.11, 0.05, 0, 0, 0, 2140.5, 2172.3, 15.8, 1.370, 2.603, 0.782, 0.017, 0.794, 0.167, 1.088, 0.416, 0.060, 0.095, 1.301, 0.000, 1.407, 2.732, 0.620, 0.013, 0.634, 0.186, 0.892, 0.527, 0.008, 0.083, 1.366, 0.000, 2.795, 3.110, 0.039, 0.002, 0.051, 1.176, 0.141, 3.393, -0.158, 4.712, 1.555, 0.047, 0.000, 0.000, 0.000, 3, 0, 3, 5, 5, 1, 4, 3, 0, 9, 39, 62, 33, 18, 6447, 2, 0, 2, 2, 1, 1, 1, 0, 0, 4, 12, 10, 4, 4, 5382, 7, 0, 7, 12, 1, 3, 4, 1, 0, 58, 211, 155, 15, 31, 1241,
 15:09:08.765,e36fca7b-ac85-42ee-9e80-64b80ac1a132, 2000-00-00 00:01:30.720, 39.12, 0.7822, 0.6201, 0.0391, 0.2715, 0.2607, 0.1274, 0.13, 0.12, 0.05, 0, 0, 0, 697.6, 2156.4, 697.6, 1.315, 2.909, 0.782, 0.010, 0.792, 0.127, 1.042, 0.386, 0.136, 0.222, 1.454, 0.000, 1.447, 3.181, 0.620, 0.009, 0.631, 0.157, 0.914, 0.474, -0.311, 0.070, 1.590, 0.000, 3.642, 4.041, 0.039, 0.001, 0.043, 1.177, 0.159, 4.314, 0.453, 0.087, 2.020, 0.000, 0.000, 0.000, 0.000, 4, 0, 4, 3, 3, 0, 2, 6, 0, 24, 37, 29, 15, 7, 5960, 2, 0, 2, 2, 2, 0, 1, 0, 0, 4, 12, 15, 8, 2, 4176, 10, 0, 10, 10, 6, 1, 2, 0, 0, 119, 233, 154, 42, 8, 1230,
 15:09:09.008,e36fca7b-ac85-42ee-9e80-64b80ac1a132, 2000-00-00 00:01:30.955, 39.17, 0.7822, 0.6201, 0.0391, 0.2871, 0.2627, 0.1270, 0.12, 0.10, 0.04, 0, 0, 0, 2172.3, 2172.3, 15.8, 1.426, 2.682, 0.782, 0.012, 0.788, 0.140, 1.124, 0.443, -0.025, 0.078, 1.341, 0.000, 1.404, 2.888, 0.620, 0.008, 0.626, 0.151, 0.879, 0.517, 0.053, 0.068, 1.444, 0.000, 3.609, 3.340, 0.039, 0.001, 0.046, 1.126, 0.169, 4.670, 0.234, 4.135, 1.670, 0.041, 0.000, 0.000, 0.000, 2, 0, 2, 4, 2, 0, 0, 4, 0, 7, 25, 23, 5, 0, 5489, 1, 0, 1, 3, 3, 1, 1, 1, 0, 2, 14, 23, 13, 2, 4180, 7, 0, 7, 13, 6, 2, 3, 2, 0, 53, 231, 220, 48, 15, 1140,
 15:09:09.253,e36fca7b-ac85-42ee-9e80-64b80ac1a132, 2000-00-00 00:01:31.190, 39.16, 0.7822, 0.6201, 0.0391, 0.3496, 0.3188, 0.1470, 0.20, 0.17, 0.08, 0, 0, 0, 2156.4, 2124.7, 697.6, 1.487, 3.230, 0.782, 0.011, 0.789, 0.139, 1.174, 0.525, -0.022, 0.080, 1.615, 0.000, 1.472, 3.424, 0.620, 0.008, 0.626, 0.150, 0.922, 0.641, 0.143, 0.068, 1.712, 0.000, 3.490, 3.107, 0.039, 0.002, 0.048, 1.193, 0.169, 4.350, 0.098, 4.517, 1.553, 0.045, 0.000, 0.000, 0.000, 4, 0, 4, 4, 2, 1, 2, 5, 0, 18, 34, 24, 10, 8, 7826, 3, 0, 3, 2, 2, 0, 0, 0, 0, 10, 15, 11, 7, 0, 5656, 11, 0, 11, 10, 4, 1, 0, 2, 0, 126, 242, 133, 20, 3, 1121,
 15:09:09.496,e36fca7b-ac85-42ee-9e80-64b80ac1a132, 2000-00-00 00:01:31.425, 39.11, 0.7822, 0.6201, 0.0391, 0.3159, 0.2813, 0.1279, 0.13, 0.11, 0.05, 0, 0, 0, 2219.8, 2172.3, 15.8, 1.376, 3.285, 0.782, 0.012, 0.789, 0.143, 1.087, 0.440, 0.036, 0.080, 1.642, 0.000, 1.395, 2.971, 0.620, 0.009, 0.624, 0.155, 0.871, 0.451, 0.061, 0.069, 1.485, 0.000, 2.828, 3.741, 0.039, 0.001, 0.054, 1.024, 0.152, 3.452, 0.045, 4.309, 1.870, 0.043, 0.000, 0.000, 0.000, 2, 0, 2, 5, 4, 1, 4, 3, 0, 7, 37, 53, 26, 24, 6127, 1, 0, 1, 2, 2, 1, 0, 0, 0, 3, 11, 12, 6, 2, 4300, 8, 0, 8, 12, 2, 3, 3, 2, 0, 65, 224, 166, 19, 27, 1047,
 15:09:09.741,e36fca7b-ac85-42ee-9e80-64b80ac1a132, 2000-00-00 00:01:31.660, 39.12, 0.7822, 0.6201, 0.0391, 0.3657, 0.3149, 0.1602, 0.19, 0.16, 0.07, 0, 0, 0, 2156.4, 2219.8, 697.6, 1.482, 3.169, 0.782, 0.012, 0.790, 0.140, 1.172, 0.523, 0.071, 0.246, 1.584, 0.000, 1.468, 3.321, 0.620, 0.009, 0.627, 0.153, 0.921, 0.608, 0.102, 0.066, 1.660, 0.000, 4.199, 3.826, 0.039, 0.002, 0.048, 1.203, 0.203, 5.522, 0.098, 0.103, 1.913, 0.000, 0.000, 0.000, 0.000, 4, 0, 4, 4, 3, 0, 2, 4, 0, 18, 34, 29, 13, 7, 6169, 2, 0, 2, 3, 3, 0, 1, 0, 0, 4, 13, 23, 13, 1, 3988, 9, 0, 9, 12, 7, 2, 3, 0, 0, 87, 232, 195, 58, 23, 1252,
 15:09:09.982,e36fca7b-ac85-42ee-9e80-64b80ac1a132, 2000-00-00 00:01:31.895, 39.10, 0.7822, 0.6201, 0.0391, 0.3345, 0.2993, 0.1602, 0.13, 0.11, 0.05, 0, 0, 0, 2219.8, 2124.7, 15.8, 1.415, 2.879, 0.782, 0.011, 0.788, 0.139, 1.116, 0.444, 0.030, 0.076, 1.439, 0.000, 1.470, 3.121, 0.620, 0.008, 0.626, 0.151, 0.921, 0.536, 0.032, 0.068, 1.560, 0.000, 3.613, 3.550, 0.039, 0.002, 0.048, 1.222, 0.175, 4.817, 0.135, 4.612, 1.775, 0.046, 0.000, 0.000, 0.000, 3, 0, 3, 4, 2, 1, 1, 3, 0, 14, 33, 26, 9, 4, 5305, 2, 0, 2, 3, 2, 1, 1, 0, 0, 4, 14, 18, 10, 3, 4275, 9, 0, 9, 11, 1, 4, 1, 1, 0, 82, 219, 139, 22, 22, 1073,
 15:09:10.224,e36fca7b-ac85-42ee-9e80-64b80ac1a132, 2000-00-00 00:01:32.125, 39.10, 0.7822, 0.6201, 0.0391, 0.3486, 0.3198, 0.1587, 0.15, 0.12, 0.06, 0, 0, 0, 2172.3, 2140.5, 697.6, 1.451, 3.008, 0.782, 0.013, 0.791, 0.146, 1.148, 0.497, 0.034, 0.082, 1.504, 0.000, 1.479, 3.137, 0.620, 0.009, 0.627, 0.156, 0.929, 0.588, 0.075, 0.069, 1.568, 0.000, 3.331, 3.139, 0.039, 0.002, 0.047, 1.215, 0.157, 4.296, 0.143, 4.513, 1.569, 0.045, 0.000, 0.000, 0.000, 3, 0, 3, 4, 4, 1, 1, 4, 0, 14, 34, 38, 21, 5, 8549, 2, 0, 2, 2, 1, 1, 1, 1, 0, 5, 12, 10, 4, 2, 5819, 10, 0, 10, 11, 2, 1, 2, 3, 0, 109, 234, 133, 11, 8, 1283,
 15:09:10.467,e36fca7b-ac85-42ee-9e80-64b80ac1a132, 2000-00-00 00:01:32.360, 39.10, 0.7822, 0.6201, 0.0386, 0.2988, 0.2690, 0.1270, 0.11, 0.10, 0.04, 0, 0, 0, 2172.3, 2172.3, 15.8, 1.372, 2.812, 0.782, 0.012, 0.783, 0.141, 1.075, 0.412, -0.026, 0.078, 1.406, 0.000, 1.371, 2.906, 0.620, 0.009, 0.625, 0.153, 0.857, 0.427, 0.105, 0.067, 1.453, 0.000, 2.975, 3.305, 0.038, 0.001, 0.044, 1.029, 0.132, 3.194, 0.126, 3.655, 1.652, 0.036, 0.000, 0.000, 0.000, 3, 0, 3, 4, 4, 1, 2, 0, 0, 12, 36, 43, 22, 9, 5047, 1, 0, 1, 3, 2, 0, 0, 0, 0, 3, 12, 17, 9, 1, 4303, 9, 0, 9, 11, 6, 3, 1, 2, 0, 89, 224, 171, 48, 13, 1025,
 15:09:10.711,e36fca7b-ac85-42ee-9e80-64b80ac1a132, 2000-00-00 00:01:32.590, 39.14, 0.7822, 0.6201, 0.0386, 0.3125, 0.2651, 0.1348, 0.17, 0.14, 0.06, 0, 0, 0, 2156.4, 2156.4, 15.8, 1.288, 2.629, 0.782, 0.010, 0.794, 0.132, 1.023, 0.344, 0.195, 0.075, 1.314, 0.000, 1.388, 2.878, 0.620, 0.007, 0.627, 0.140, 0.871, 0.405, -0.082, 0.063, 1.439, 0.000, 2.977, 3.300, 0.038, 0.001, 0.049, 1.105, 0.144, 3.495, -0.102, 4.147, 1.650, 0.041, 0.000, 0.000, 0.000, 3, 0, 3, 4, 1, 1, 2, 2, 0, 11, 29, 21, 4, 5, 6084, 1, 0, 1, 3, 3, 0, 1, 0, 0, 3, 13, 25, 15, 1, 3954, 8, 0, 8, 13, 9, 2, 4, 1, 0, 64, 235, 253, 87, 26, 1261,
 15:09:10.956,e36fca7b-ac85-42ee-9e80-64b80ac1a132, 2000-00-00 00:01:32.830, 39.16, 0.7822, 0.6201, 0.0386, 0.3037, 0.2769, 0.1528, 0.14, 0.11, 0.05, 0, 0, 0, 697.6, 2124.7, 697.6, 1.387, 2.824, 0.782, 0.012, 0.791, 0.141, 1.097, 0.432, 0.071, 0.079, 1.412, 0.000, 1.468, 3.190, 0.620, 0.008, 0.627, 0.150, 0.921, 0.526, 0.045, 0.066, 1.595, 0.000, 3.906, 3.641, 0.038, 0.002, 0.048, 1.192, 0.189, 5.033, 0.097, 4.479, 1.820, 0.044, 0.000, 0.000, 0.000, 3, 0, 3, 4, 2, 1, 1, 2, 0, 14, 32, 24, 7, 4, 4703, 2, 0, 2, 2, 2, 0, 0, 0, 0, 5, 14, 17, 9, 1, 3193, 10, 0, 10, 10, 2, 3, 3, 2, 0, 119, 232, 119, 18, 21, 1129,
 15:09:11.199,e36fca7b-ac85-42ee-9e80-64b80ac1a132, 2000-00-00 00:01:33.065, 39.13, 0.7822, 0.6196, 0.0386, 0.3252, 0.2891, 0.1602, 0.13, 0.11, 0.05, 0, 0, 0, 2140.5, 2140.5, 15.8, 1.450, 2.889, 0.782, 0.013, 0.789, 0.147, 1.145, 0.470, -0.001, 0.083, 1.444, 0.000, 1.467, 3.089, 0.620, 0.009, 0.627, 0.155, 0.920, 0.538, 0.011, 0.069, 1.544, 0.000, 3.815, 4.129, 0.038, 0.002, 0.049, 1.138, 0.184, 5.158, 0.341, 4.358, 2.064, 0.043, 0.000, 0.000, 0.000, 3, 0, 3, 4, 4, 0, 0, 1, 0, 11, 35, 46, 22, 1, 5970, 2, 0, 2, 2, 1, 0, 0, 1, 0, 5, 12, 10, 3, 1, 4229, 7, 0, 7, 12, 5, 1, 1, 4, 0, 52, 218, 199, 36, 7, 1211,
 15:09:11.444,e36fca7b-ac85-42ee-9e80-64b80ac1a132, 2000-00-00 00:01:33.300, 39.11, 0.7822, 0.6201, 0.0386, 0.3179, 0.2798, 0.1431, 0.15, 0.12, 0.06, 0, 0, 0, 2156.4, 2156.4, 697.6, 1.311, 2.678, 0.782, 0.010, 0.793, 0.131, 1.040, 0.332, 0.022, 0.074, 1.339, 0.000, 1.335, 3.261, 0.620, 0.006, 0.627, 0.127, 0.837, 0.384, 0.175, 0.057, 1.630, 0.000, 2.722, 2.915, 0.038, 0.002, 0.054, 1.149, 0.146, 3.183, 0.009, 0.109, 1.457, 0.000, 0.000, 0.000, 0.000, 4, 0, 4, 3, 2, 1, 0, 1, 0, 18, 33, 20, 8, 3, 7678, 3, 0, 3, 1, 2, 1, 0, 0, 0, 11, 13, 9, 7, 1, 5141, 11, 0, 11, 10, 4, 2, 0, 3, 0, 122, 235, 134, 26, 4, 940,
 15:09:11.688,e36fca7b-ac85-42ee-9e80-64b80ac1a132, 2000-00-00 00:01:33.535, 39.10, 0.7822, 0.6201, 0.0386, 0.2979, 0.2617, 0.1294, 0.15, 0.12, 0.05, 0, 0, 0, 2140.5, 2140.5, 15.8, 1.338, 3.218, 0.782, 0.009, 0.790, 0.123, 1.059, 0.361, -0.051, 0.070, 1.609, 0.000, 1.319, 3.214, 0.620, 0.007, 0.631, 0.142, 0.832, 0.433, 0.264, 0.065, 1.607, 0.000, 3.018, 3.327, 0.038, 0.001, 0.046, 1.156, 0.139, 3.740, -0.091, 4.151, 1.663, 0.041, 0.000, 0.000, 0.000, 2, 0, 2, 5, 4, 0, 2, 2, 0, 7, 36, 53, 24, 4, 4521, 1, 0, 1, 3, 1, 1, 1, 0, 0, 3, 12, 13, 4, 2, 3587, 7, 0, 7, 12, 1, 4, 5, 1, 0, 54, 211, 161, 24, 45, 1111,
 15:09:11.932,e36fca7b-ac85-42ee-9e80-64b80ac1a132, 2000-00-00 00:01:33.775, 39.11, 0.7822, 0.6201, 0.0386, 0.3428, 0.2871, 0.1533, 0.17, 0.15, 0.07, 0, 0, 0, 697.6, 2108.8, 697.6, 1.450, 3.190, 0.782, 0.012, 0.791, 0.139, 1.147, 0.521, 0.027, 0.078, 1.595, 0.000, 1.462, 3.317, 0.620, 0.008, 0.628, 0.150, 0.918, 0.535, 0.171, 0.067, 1.658, 0.000, 3.815, 3.595, 0.038, 0.002, 0.048, 1.207, 0.184, 4.707, 0.089, 4.504, 1.797, 0.045, 0.000, 0.000, 0.000, 4, 0, 4, 4, 3, 0, 0, 2, 0, 18, 34, 31, 15, 1, 5326, 2, 0, 2, 2, 2, 0, 1, 0, 0, 7, 12, 11, 7, 2, 3900, 10, 0, 10, 10, 6, 0, 3, 2, 0, 118, 232, 153, 40, 15, 1259,
 15:09:12.175,e36fca7b-ac85-42ee-9e80-64b80ac1a132, 2000-00-00 00:01:34.010, 39.09, 0.7822, 0.6201, 0.0386, 0.2920, 0.2593, 0.1333, 0.12, 0.10, 0.04, 0, 0, 0, 2172.3, 2172.3, 15.8, 1.334, 2.551, 0.782, 0.011, 0.784, 0.139, 1.046, 0.347, -0.057, 0.077, 1.275, 0.000, 1.353, 3.100, 0.620, 0.007, 0.622, 0.139, 0.842, 0.398, 0.077, 0.061, 1.550, 0.000, 3.024, 3.476, 0.038, 0.001, 0.051, 1.054, 0.150, 3.436, 0.136, 4.159, 1.738, 0.041, 0.000, 0.000, 0.000, 3, 0, 3, 4, 3, 1, 1, 1, 0, 10, 32, 33, 13, 3, 8148, 1, 0, 1, 3, 3, 0, 1, 1, 0, 2, 13, 21, 11, 3, 5567, 7, 0, 7, 12, 6, 2, 1, 4, 0, 55, 221, 209, 51, 9, 1028,
 15:09:12.420,e36fca7b-ac85-42ee-9e80-64b80ac1a132, 2000-00-00 00:01:34.240, 39.09, 0.7822, 0.6201, 0.0386, 0.2891, 0.2554, 0.1387, 0.14, 0.11, 0.05, 0, 0, 0, 2156.4, 2156.4, 697.6, 1.391, 3.142, 0.782, 0.010, 0.794, 0.128, 1.105, 0.404, -0.266, 0.072, 1.571, 0.000, 1.292, 2.717, 0.620, 0.006, 0.626, 0.133, 0.809, 0.368, 0.216, 0.059, 1.358, 0.000, 3.420, 4.350, 0.038, 0.001, 0.047, 1.131, 0.153, 4.375, 0.633, 0.091, 2.175, 0.000, 0.000, 0.000, 0.000, 4, 0, 4, 3, 2, 0, 1, 2, 0, 22, 33, 18, 9, 4, 6166, 2, 0, 2, 2, 3, 0, 0, 2, 0, 6, 14, 19, 10, 0, 4459, 10, 0, 10, 10, 4, 2, 2, 2, 0, 119, 236, 138, 27, 9, 1196,
 15:09:12.665,e36fca7b-ac85-42ee-9e80-64b80ac1a132, 2000-00-00 00:01:34.480, 39.09, 0.7822, 0.6201, 0.0386, 0.2915, 0.2534, 0.1196, 0.16, 0.14, 0.06, 0, 0, 0, 2156.4, 2156.4, 697.6, 1.337, 2.523, 0.782, 0.012, 0.794, 0.141, 1.063, 0.380, 0.041, 0.080, 1.261, 0.000, 1.384, 3.103, 0.620, 0.009, 0.627, 0.153, 0.869, 0.449, 0.112, 0.068, 1.551, 0.000, 2.727, 3.175, 0.038, 0.001, 0.046, 1.058, 0.128, 3.102, 0.046, 0.086, 1.587, 0.000, 0.000, 0.000, 0.000, 3, 0, 3, 4, 4, 1, 2, 2, 0, 9, 33, 44, 21, 8, 7552, 2, 0, 2, 2, 2, 0, 0, 1, 0, 4, 12, 16, 8, 1, 5194, 9, 0, 9, 11, 6, 3, 1, 2, 0, 87, 230, 188, 60, 16, 1296,
 15:09:12.910,e36fca7b-ac85-42ee-9e80-64b80ac1a132, 2000-00-00 00:01:34.715, 39.10, 0.7822, 0.6201, 0.0391, 0.3071, 0.2622, 0.1211, 0.20, 0.16, 0.08, 0, 0, 0, 2124.7, 2156.4, 697.6, 1.431, 3.483, 0.782, 0.015, 0.799, 0.158, 1.143, 0.506, 0.290, 0.279, 1.741, 0.000, 1.475, 3.593, 0.620, 0.009, 0.629, 0.155, 0.928, 0.502, -0.135, 0.069, 1.796, 0.000, 3.038, 2.798, 0.039, 0.002, 0.051, 1.180, 0.156, 3.459, -0.282, 0.108, 1.399, 0.000, 0.000, 0.000, 0.000, 3, 0, 3, 5, 4, 1, 3, 3, 0, 10, 37, 50, 24, 11, 6764, 2, 0, 2, 3, 4, 0, 0, 0, 0, 4, 14, 26, 16, 0, 5301, 8, 0, 8, 12, 8, 1, 3, 3, 0, 73, 240, 238, 74, 13, 1462,
 15:09:13.153,e36fca7b-ac85-42ee-9e80-64b80ac1a132, 2000-00-00 00:01:34.950, 39.11, 0.7822, 0.6201, 0.0391, 0.2915, 0.2485, 0.1230, 0.22, 0.18, 0.08, 0, 0, 0, 2172.3, 2172.3, 697.6, 1.313, 2.759, 0.782, 0.013, 0.796, 0.146, 1.046, 0.385, 0.150, 0.082, 1.379, 0.000, 1.403, 3.069, 0.620, 0.008, 0.627, 0.146, 0.881, 0.423, -0.116, 0.065, 1.534, 0.000, 3.079, 3.240, 0.039, 0.001, 0.047, 1.119, 0.146, 3.462, -0.192, 0.093, 1.620, 0.000, 0.000, 0.000, 0.000, 4, 0, 4, 4, 1, 1, 2, 2, 0, 16, 33, 19, 6, 11, 8640, 2, 0, 2, 2, 2, 0, 1, 1, 0, 5, 13, 15, 8, 4, 5381, 11, 0, 11, 10, 2, 2, 2, 2, 0, 129, 241, 117, 12, 12, 1049,
 15:09:13.401,e36fca7b-ac85-42ee-9e80-64b80ac1a132, 2000-00-00 00:01:35.185, 39.11, 0.7822, 0.6201, 0.0391, 0.2754, 0.2441, 0.1230, 0.16, 0.13, 0.06, 0, 0, 0, 2172.3, 2172.3, 697.6, 1.413, 2.965, 0.782, 0.013, 0.789, 0.146, 1.115, 0.454, -0.013, 0.081, 1.482, 0.000, 1.404, 3.172, 0.620, 0.009, 0.627, 0.157, 0.880, 0.601, 0.152, 0.069, 1.586, 0.000, 3.577, 3.770, 0.039, 0.002, 0.051, 1.157, 0.181, 4.195, -0.113, 0.103, 1.885, 0.000, 0.000, 0.000, 0.000, 3, 0, 3, 4, 4, 1, 1, 4, 0, 15, 36, 42, 23, 3, 8308, 2, 0, 2, 2, 1, 0, 0, 1, 0, 6, 13, 10, 3, 1, 5406, 7, 0, 7, 12, 2, 2, 4, 2, 0, 59, 211, 160, 13, 24, 1491,
 15:09:13.644,e36fca7b-ac85-42ee-9e80-64b80ac1a132, 2000-00-00 00:01:35.425, 39.10, 0.7822, 0.6201, 0.0391, 0.2705, 0.2520, 0.1240, 0.17, 0.14, 0.07, 0, 0, 0, 697.6, 2140.5, 697.6, 1.352, 2.562, 0.782, 0.013, 0.798, 0.149, 1.079, 0.370, 0.021, 0.263, 1.281, 0.000, 1.436, 3.387, 0.620, 0.009, 0.627, 0.157, 0.901, 0.509, 0.235, 0.071, 1.693, 0.000, 3.220, 4.148, 0.039, 0.001, 0.045, 1.147, 0.142, 4.287, 0.053, 0.087, 2.074, 0.000, 0.000, 0.000, 0.000, 2, 0, 2, 5, 4, 2, 3, 2, 0, 7, 37, 51, 29, 20, 6018, 2, 0, 2, 2, 2, 0, 1, 1, 0, 5, 12, 12, 5, 1, 3939, 10, 0, 10, 10, 4, 3, 1, 1, 0, 107, 226, 142, 32, 11, 1143,
 15:09:13.888,e36fca7b-ac85-42ee-9e80-64b80ac1a132, 2000-00-00 00:01:35.660, 39.10, 0.7822, 0.6201, 0.0391, 0.2881, 0.2539, 0.1255, 0.25, 0.20, 0.10, 0, 0, 0, 697.6, 2124.7, 15.8, 1.372, 2.522, 0.782, 0.015, 0.793, 0.157, 1.089, 0.390, -0.103, 0.275, 1.261, 0.000, 1.395, 2.783, 0.620, 0.010, 0.627, 0.161, 0.875, 0.455, 0.051, 0.073, 1.391, 0.000, 2.758, 3.030, 0.039, 0.002, 0.053, 1.037, 0.145, 3.047, -0.067, 4.389, 1.515, 0.044, 0.000, 0.000, 0.000, 3, 0, 3, 5, 2, 1, 4, 4, 0, 9, 37, 32, 8, 24, 6945, 1, 0, 1, 3, 3, 0, 0, 1, 0, 3, 13, 26, 15, 1, 5254, 6, 0, 6, 13, 9, 1, 2, 2, 0, 45, 226, 276, 100, 11, 1370,
 15:09:14.132,e36fca7b-ac85-42ee-9e80-64b80ac1a132, 2000-00-00 00:01:35.895, 39.09, 0.7822, 0.6201, 0.0396, 0.3081, 0.2607, 0.1226, 0.21, 0.17, 0.07, 0, 0, 0, 697.6, 2156.4, 697.6, 1.440, 2.760, 0.782, 0.023, 0.799, 0.192, 1.151, 0.507, 0.056, 0.336, 1.380, 0.000, 1.468, 2.893, 0.620, 0.016, 0.638, 0.202, 0.937, 0.560, -0.004, 0.091, 1.446, 0.000, 2.965, 3.243, 0.039, 0.001, 0.047, 1.126, 0.141, 3.442, 0.338, 0.095, 1.621, 0.000, 0.000, 0.000, 0.000, 5, 0, 5, 3, 2, 1, 4, 4, 0, 27, 36, 15, 7, 18, 10090, 2, 0, 2, 2, 3, 0, 0, 1, 0, 8, 13, 16, 10, 0, 5593, 11, 0, 11, 9, 2, 2, 1, 2, 0, 126, 222, 105, 12, 7, 1393,
 15:09:14.374,e36fca7b-ac85-42ee-9e80-64b80ac1a132, 2000-00-00 00:01:36.130, 39.10, 0.7822, 0.6201, 0.0396, 0.3071, 0.2642, 0.1235, 0.23, 0.19, 0.08, 0, 0, 0, 2172.3, 2172.3, 697.6, 1.359, 2.778, 0.782, 0.015, 0.796, 0.158, 1.082, 0.409, 0.071, 0.089, 1.389, 0.000, 1.411, 2.850, 0.620, 0.011, 0.630, 0.171, 0.890, 0.485, 0.063, 0.078, 1.425, 0.000, 3.171, 3.634, 0.039, 0.001, 0.045, 1.099, 0.141, 3.830, 0.084, 0.087, 1.817, 0.000, 0.000, 0.000, 0.000, 3, 0, 3, 5, 4, 1, 3, 5, 0, 11, 38, 49, 24, 12, 7219, 1, 0, 1, 2, 1, 1, 0, 1, 0, 2, 11, 11, 4, 3, 5571, 7, 0, 7, 12, 3, 3, 3, 2, 0, 50, 219, 179, 20, 20, 1158,
 15:09:14.617,e36fca7b-ac85-42ee-9e80-64b80ac1a132, 2000-00-00 00:01:36.370, 39.09, 0.7822, 0.6201, 0.0400, 0.3091, 0.2603, 0.1323, 0.27, 0.22, 0.10, 0, 0, 0, 2172.3, 2140.5, 697.6, 1.381, 2.907, 0.782, 0.015, 0.794, 0.158, 1.097, 0.431, 0.084, 0.277, 1.453, 0.000, 1.405, 2.935, 0.620, 0.010, 0.630, 0.165, 0.886, 0.485, 0.141, 0.075, 1.467, 0.000, 3.156, 3.578, 0.040, 0.002, 0.054, 1.241, 0.169, 4.012, -0.176, 0.114, 1.789, 0.000, 0.000, 0.000, 0.000, 3, 0, 3, 5, 5, 2, 2, 5, 0, 10, 39, 58, 33, 9, 9402, 2, 0, 2, 2, 2, 0, 1, 0, 0, 8, 13, 12, 7, 1, 4336, 10, 0, 10, 11, 5, 2, 1, 0, 0, 112, 234, 148, 31, 7, 1140,
 15:09:14.862,e36fca7b-ac85-42ee-9e80-64b80ac1a132, 2000-00-00 00:01:36.600, 39.08, 0.7822, 0.6201, 0.0405, 0.2979, 0.2563, 0.1382, 0.26, 0.21, 0.10, 0, 0, 0, 697.6, 2140.5, 697.6, 1.402, 3.065, 0.782, 0.011, 0.790, 0.137, 1.109, 0.416, 0.022, 0.240, 1.532, 0.000, 1.389, 3.063, 0.620, 0.009, 0.631, 0.153, 0.877, 0.416, -0.049, 0.069, 1.531, 0.000, 3.874, 5.599, 0.040, 0.002, 0.049, 1.234, 0.189, 5.020, 0.742, 0.101, 2.799, 0.000, 0.000, 0.000, 0.000, 3, 0, 3, 5, 3, 2, 2, 5, 0, 10, 35, 39, 18, 13, 7103, 1, 0, 1, 3, 2, 1, 0, 0, 0, 3, 13, 16, 7, 2, 4928, 9, 0, 9, 12, 4, 3, 1, 0, 0, 81, 235, 174, 36, 18, 1603,
 15:09:15.106,e36fca7b-ac85-42ee-9e80-64b80ac1a132, 2000-00-00 00:01:36.835, 39.11, 0.7822, 0.6196, 0.0405, 0.3135, 0.2769, 0.1270, 0.18, 0.15, 0.07, 0, 0, 0, 2156.4, 2172.3, 697.6, 1.424, 2.870, 0.782, 0.016, 0.792, 0.161, 1.129, 0.452, -0.012, 0.092, 1.435, 0.000, 1.440, 3.391, 0.620, 0.010, 0.628, 0.162, 0.905, 0.537, 0.080, 0.073, 1.695, 0.000, 3.158, 3.000, 0.040, 0.001, 0.052, 1.059, 0.163, 3.420, -0.195, 4.230, 1.500, 0.042, 0.000, 0.000, 0.000, 3, 0, 3, 4, 4, 0, 3, 4, 0, 13, 34, 38, 17, 11, 10201, 3, 0, 3, 2, 2, 0, 0, 1, 0, 9, 14, 11, 7, 0, 6878, 10, 0, 10, 11, 6, 1, 3, 2, 0, 100, 227, 164, 40, 14, 1346,
 15:09:15.350,e36fca7b-ac85-42ee-9e80-64b80ac1a132, 2000-00-00 00:01:37.075, 39.10, 0.7822, 0.6196, 0.0405, 0.3071, 0.2646, 0.1289, 0.26, 0.21, 0.10, 0, 0, 0, 2124.7, 2124.7, 697.6, 1.383, 2.575, 0.782, 0.018, 0.796, 0.170, 1.101, 0.447, 0.015, 0.098, 1.287, 0.000, 1.406, 2.705, 0.620, 0.010, 0.631, 0.165, 0.887, 0.432, -0.141, 0.075, 1.352, 0.000, 3.046, 3.151, 0.040, 0.002, 0.048, 1.165, 0.147, 3.723, -0.171, 0.100, 1.575, 0.000, 0.000, 0.000, 0.000, 3, 0, 3, 4, 2, 1, 3, 5, 0, 9, 32, 31, 9, 11, 6930, 1, 0, 1, 3, 3, 0, 1, 1, 0, 3, 12, 18, 10, 1, 5320, 9, 0, 9, 12, 6, 2, 1, 2, 0, 86, 241, 198, 50, 8, 1344,
 15:09:15.591,e36fca7b-ac85-42ee-9e80-64b80ac1a132, 2000-00-00 00:01:37.305, 39.10, 0.7822, 0.6201, 0.0400, 0.2969, 0.2583, 0.1211, 0.19, 0.16, 0.07, 0, 0, 0, 2172.3, 2172.3, 697.6, 1.317, 2.820, 0.782, 0.010, 0.789, 0.129, 1.040, 0.351, 0.040, 0.072, 1.410, 0.000, 1.359, 3.237, 0.620, 0.007, 0.629, 0.142, 0.855, 0.410, 0.080, 0.063, 1.618, 0.000, 3.239, 3.724, 0.040, 0.001, 0.046, 1.141, 0.148, 4.070, -0.201, 0.093, 1.862, 0.000, 0.000, 0.000, 0.000, 3, 0, 3, 4, 1, 2, 3, 4, 0, 13, 33, 22, 7, 16, 6886, 2, 0, 2, 2, 3, 0, 1, 0, 0, 5, 12, 16, 9, 1, 4616, 9, 0, 9, 11, 5, 2, 3, 1, 0, 95, 228, 165, 36, 15, 1165,
 15:09:15.834,e36fca7b-ac85-42ee-9e80-64b80ac1a132, 2000-00-00 00:01:37.540, 39.10, 0.7822, 0.6196, 0.0400, 0.2769, 0.2451, 0.1235, 0.15, 0.12, 0.05, 0, 0, 0, 697.6, 2124.7, 697.6, 1.403, 2.945, 0.782, 0.020, 0.799, 0.172, 1.123, 0.475, 0.085, 0.304, 1.472, 0.000, 1.452, 3.194, 0.620, 0.014, 0.634, 0.186, 0.923, 0.588, 0.133, 0.085, 1.597, 0.000, 3.463, 4.088, 0.040, 0.001, 0.047, 1.149, 0.162, 4.262, 0.510, 0.096, 2.044, 0.000, 0.000, 0.000, 0.000, 4, 0, 4, 4, 2, 2, 2, 4, 0, 17, 33, 21, 11, 11, 4441, 2, 0, 2, 2, 2, 0, 1, 0, 0, 4, 12, 16, 9, 1, 3207, 10, 0, 10, 11, 5, 3, 1, 1, 0, 102, 242, 173, 45, 13, 1119,
 15:09:16.078,e36fca7b-ac85-42ee-9e80-64b80ac1a132, 2000-00-00 00:01:37.775, 39.06, 0.7822, 0.6196, 0.0400, 0.2930, 0.2725, 0.1416, 0.14, 0.12, 0.05, 0, 0, 0, 2140.5, 2172.3, 15.8, 1.406, 2.629, 0.782, 0.013, 0.790, 0.148, 1.111, 0.424, -0.035, 0.083, 1.314, 0.000, 1.496, 3.146, 0.620, 0.009, 0.627, 0.154, 0.938, 0.532, -0.014, 0.068, 1.573, 0.000, 3.539, 3.993, 0.040, 0.001, 0.049, 1.131, 0.175, 4.457, 0.144, 4.346, 1.996, 0.043, 0.000, 0.000, 0.000, 3, 0, 3, 4, 4, 0, 0, 4, 0, 13, 34, 39, 18, 0, 7168, 1, 0, 1, 3, 3, 0, 0, 0, 0, 3, 13, 25, 15, 0, 3887, 7, 0, 7, 13, 9, 1, 3, 2, 0, 53, 239, 280, 96, 14, 1305,
 15:09:16.322,e36fca7b-ac85-42ee-9e80-64b80ac1a132, 2000-00-00 00:01:38.010, 39.07, 0.7822, 0.6196, 0.0400, 0.3428, 0.3125, 0.1606, 0.18, 0.15, 0.07, 0, 0, 0, 2124.7, 2124.7, 697.6, 1.396, 2.622, 0.782, 0.015, 0.798, 0.158, 1.116, 0.434, -0.015, 0.091, 1.311, 0.000, 1.433, 2.837, 0.620, 0.011, 0.630, 0.168, 0.904, 0.478, 0.009, 0.076, 1.418, 0.000, 2.805, 3.099, 0.040, 0.001, 0.044, 1.107, 0.125, 3.356, 0.269, 0.086, 1.549, 0.000, 0.000, 0.000, 0.000, 4, 0, 4, 3, 2, 1, 1, 4, 0, 18, 33, 20, 7, 2, 6853, 2, 0, 2, 2, 3, 0, 1, 1, 0, 5, 13, 17, 10, 1, 4813, 12, 0, 12, 9, 3, 1, 2, 3, 0, 145, 239, 102, 10, 5, 937,
 15:09:16.564,e36fca7b-ac85-42ee-9e80-64b80ac1a132, 2000-00-00 00:01:38.245, 39.07, 0.7822, 0.6196, 0.0400, 0.3379, 0.2861, 0.1357, 0.21, 0.17, 0.08, 0, 0, 0, 697.6, 2172.3, 15.8, 1.438, 3.058, 0.782, 0.015, 0.792, 0.154, 1.140, 0.481, 0.011, 0.087, 1.529, 0.000, 1.436, 3.080, 0.620, 0.010, 0.629, 0.164, 0.904, 0.491, 0.019, 0.073, 1.540, 0.000, 3.083, 3.212, 0.040, 0.002, 0.050, 1.198, 0.155, 3.696, 0.078, 4.682, 1.606, 0.046, 0.000, 0.000, 0.000, 2, 0, 2, 5, 4, 1, 3, 1, 0, 7, 35, 50, 23, 16, 4968, 1, 0, 1, 3, 1, 1, 0, 1, 0, 2, 11, 12, 6, 2, 3420, 7, 0, 7, 13, 3, 2, 4, 3, 0, 51, 223, 182, 16, 29, 1216,
 15:09:16.806,e36fca7b-ac85-42ee-9e80-64b80ac1a132, 2000-00-00 00:01:38.475, 39.07, 0.7822, 0.6196, 0.0396, 0.3560, 0.3203, 0.1519, 0.14, 0.12, 0.05, 0, 0, 0, 2156.4, 2156.4, 15.8, 1.405, 2.974, 0.782, 0.011, 0.790, 0.138, 1.111, 0.443, 0.019, 0.078, 1.487, 0.000, 1.474, 3.102, 0.620, 0.008, 0.627, 0.149, 0.924, 0.546, 0.057, 0.067, 1.551, 0.000, 3.862, 3.222, 0.039, 0.001, 0.046, 1.199, 0.179, 4.561, 0.015, 4.376, 1.611, 0.043, 0.000, 0.000, 0.000, 3, 0, 3, 4, 4, 0, 0, 2, 0, 16, 35, 39, 20, 1, 5628, 2, 0, 2, 2, 2, 0, 1, 1, 0, 8, 13, 9, 4, 2, 3946, 11, 0, 11, 10, 4, 2, 3, 2, 0, 131, 240, 125, 22, 14, 988,
 15:09:17.047,e36fca7b-ac85-42ee-9e80-64b80ac1a132, 2000-00-00 00:01:38.705, 39.08, 0.7822, 0.6196, 0.0396, 0.3545, 0.3247, 0.1636, 0.11, 0.10, 0.04, 0, 0, 0, 2140.5, 2140.5, 15.8, 1.426, 3.142, 0.782, 0.011, 0.789, 0.137, 1.126, 0.487, 0.026, 0.077, 1.571, 0.000, 1.471, 3.334, 0.620, 0.008, 0.626, 0.149, 0.922, 0.544, 0.116, 0.066, 1.667, 0.000, 4.264, 3.599, 0.039, 0.001, 0.045, 1.212, 0.194, 5.175, 0.042, 4.288, 1.799, 0.043, 0.000, 0.000, 0.000, 3, 0, 3, 4, 2, 0, 1, 1, 0, 10, 32, 29, 7, 4, 4622, 1, 0, 1, 3, 3, 0, 0, 1, 0, 3, 16, 28, 16, 0, 3569, 7, 0, 7, 13, 9, 2, 1, 3, 0, 53, 235, 281, 108, 10, 1089,
 15:09:17.292,e36fca7b-ac85-42ee-9e80-64b80ac1a132, 2000-00-00 00:01:38.940, 39.09, 0.7822, 0.6196, 0.0396, 0.3896, 0.3496, 0.1826, 0.13, 0.11, 0.05, 0, 0, 0, 697.6, 2156.4, 15.8, 1.512, 3.194, 0.782, 0.012, 0.790, 0.143, 1.194, 0.546, -0.035, 0.080, 1.597, 0.000, 1.539, 3.477, 0.620, 0.009, 0.627, 0.154, 0.965, 0.649, 0.067, 0.069, 1.738, 0.000, 4.445, 3.732, 0.039, 0.002, 0.046, 1.215, 0.207, 5.807, 0.184, 4.406, 1.866, 0.044, 0.000, 0.000, 0.000, 4, 0, 4, 3, 2, 1, 0, 1, 0, 21, 34, 19, 8, 1, 5162, 2, 0, 2, 2, 3, 0, 0, 0, 0, 6, 13, 17, 11, 0, 4137, 11, 0, 11, 9, 2, 2, 0, 3, 0, 138, 233, 103, 14, 6, 1108,
 15:09:17.535,e36fca7b-ac85-42ee-9e80-64b80ac1a132, 2000-00-00 00:01:39.180, 39.08, 0.7822, 0.6201, 0.0396, 0.3682, 0.3530, 0.1836, 0.11, 0.10, 0.04, 0, 0, 0, 2124.7, 2172.3, 15.8, 1.453, 3.170, 0.782, 0.011, 0.790, 0.139, 1.149, 0.472, -0.008, 0.078, 1.585, 0.000, 1.514, 3.332, 0.620, 0.008, 0.627, 0.148, 0.949, 0.579, 0.041, 0.066, 1.666, 0.000, 4.112, 3.656, 0.039, 0.002, 0.047, 1.237, 0.196, 5.211, 0.218, 4.545, 1.828, 0.045, 0.000, 0.000, 0.000, 2, 0, 2, 5, 3, 0, 1, 1, 0, 8, 36, 38, 11, 1, 6759, 1, 0, 1, 3, 2, 0, 0, 1, 0, 3, 13, 18, 9, 1, 4581, 8, 0, 8, 12, 6, 2, 1, 3, 0, 70, 218, 187, 48, 12, 1197,
 15:09:17.779,e36fca7b-ac85-42ee-9e80-64b80ac1a132, 2000-00-00 00:01:39.415, 39.17, 0.7822, 0.6201, 0.0396, 0.3843, 0.3530, 0.1738, 0.11, 0.09, 0.04, 0, 0, 0, 2156.4, 2140.5, 15.8, 1.510, 3.206, 0.782, 0.013, 0.791, 0.147, 1.195, 0.544, 0.029, 0.082, 1.603, 0.000, 1.514, 3.212, 0.620, 0.009, 0.627, 0.154, 0.950, 0.618, 0.029, 0.068, 1.606, 0.000, 3.985, 3.305, 0.039, 0.002, 0.047, 1.220, 0.190, 4.831, 0.118, 4.531, 1.652, 0.045, 0.000, 0.000, 0.000, 4, 0, 4, 3, 2, 1, 0, 0, 0, 19, 34, 20, 8, 3, 7958, 2, 0, 2, 2, 2, 0, 1, 0, 0, 6, 13, 15, 8, 3, 4920, 8, 0, 8, 12, 6, 2, 4, 1, 0, 72, 221, 192, 48, 28, 1039,
 15:09:18.023,e36fca7b-ac85-42ee-9e80-64b80ac1a132, 2000-00-00 00:01:39.650, 39.15, 0.7822, 0.6201, 0.0396, 0.3599, 0.3262, 0.1743, 0.10, 0.09, 0.04, 0, 0, 0, 2188.1, 2188.1, 15.8, 1.429, 3.066, 0.782, 0.011, 0.790, 0.135, 1.129, 0.454, 0.055, 0.075, 1.533, 0.000, 1.467, 3.330, 0.620, 0.008, 0.626, 0.146, 0.919, 0.563, 0.078, 0.064, 1.665, 0.000, 4.556, 3.460, 0.039, 0.001, 0.046, 1.225, 0.209, 5.522, -0.038, 4.397, 1.730, 0.044, 0.000, 0.000, 0.000, 3, 0, 3, 4, 3, 1, 1, 2, 0, 10, 33, 36, 15, 4, 4753, 2, 0, 2, 2, 3, 0, 0, 1, 0, 6, 13, 17, 10, 0, 3459, 10, 0, 10, 11, 5, 3, 2, 2, 0, 108, 235, 162, 45, 14, 1060,
 15:09:18.268,e36fca7b-ac85-42ee-9e80-64b80ac1a132, 2000-00-00 00:01:39.885, 39.13, 0.7822, 0.6201, 0.0396, 0.3530, 0.3267, 0.1733, 0.14, 0.12, 0.06, 0, 0, 0, 2172.3, 2172.3, 15.8, 1.446, 3.223, 0.782, 0.010, 0.789, 0.132, 1.142, 0.478, 0.075, 0.074, 1.611, 0.000, 1.487, 3.587, 0.620, 0.007, 0.626, 0.143, 0.931, 0.576, 0.059, 0.063, 1.793, 0.000, 3.880, 3.476, 0.039, 0.001, 0.046, 1.217, 0.179, 4.904, 0.046, 4.393, 1.738, 0.044, 0.000, 0.000, 0.000, 2, 0, 2, 5, 5, 0, 2, 2, 0, 7, 39, 58, 26, 5, 6847, 2, 0, 2, 2, 2, 1, 0, 1, 0, 6, 12, 10, 5, 1, 5089, 8, 0, 8, 11, 4, 1, 2, 5, 0, 78, 221, 166, 27, 8, 1127,
 15:09:18.512,e36fca7b-ac85-42ee-9e80-64b80ac1a132, 2000-00-00 00:01:40.120, 39.10, 0.7817, 0.6201, 0.0396, 0.3403, 0.3140, 0.1533, 0.12, 0.10, 0.05, 0, 0, 0, 2140.5, 2172.3, 15.8, 1.383, 2.517, 0.782, 0.016, 0.787, 0.165, 1.090, 0.410, 0.023, 0.093, 1.258, 0.000, 1.386, 3.107, 0.620, 0.009, 0.625, 0.160, 0.867, 0.470, 0.174, 0.071, 1.553, 0.000, 2.929, 3.023, 0.039, 0.003, 0.062, 1.161, 0.181, 3.267, -0.027, 5.679, 1.511, 0.057, 0.000, 0.000, 0.000, 3, 0, 3, 4, 3, 1, 2, 4, 0, 12, 33, 32, 12, 7, 6748, 1, 0, 1, 2, 2, 0, 1, 1, 0, 4, 11, 14, 7, 1, 5164, 10, 0, 10, 11, 5, 2, 0, 3, 0, 106, 239, 166, 39, 5, 1191,
 15:09:18.755,e36fca7b-ac85-42ee-9e80-64b80ac1a132, 2000-00-00 00:01:40.355, 39.08, 0.7822, 0.6196, 0.0396, 0.3149, 0.2734, 0.1401, 0.14, 0.11, 0.05, 0, 0, 0, 697.6, 2140.5, 697.6, 1.346, 2.657, 0.782, 0.012, 0.784, 0.139, 1.055, 0.360, -0.087, 0.242, 1.328, 0.000, 1.359, 2.899, 0.619, 0.007, 0.623, 0.141, 0.847, 0.436, 0.184, 0.063, 1.449, 0.000, 2.881, 3.078, 0.039, 0.002, 0.054, 1.068, 0.157, 3.224, -0.157, 0.102, 1.539, 0.000, 0.000, 0.000, 0.000, 3, 0, 3, 4, 1, 2, 2, 2, 0, 10, 32, 23, 6, 12, 7353, 2, 0, 2, 3, 3, 0, 1, 0, 0, 4, 14, 20, 11, 2, 4302, 7, 0, 7, 13, 7, 2, 5, 0, 0, 55, 228, 222, 56, 35, 1400,
 15:09:18.997,e36fca7b-ac85-42ee-9e80-64b80ac1a132, 2000-00-00 00:01:40.590, 39.10, 0.7822, 0.6196, 0.0400, 0.3071, 0.2676, 0.1216, 0.19, 0.15, 0.07, 0, 0, 0, 2172.3, 2172.3, 697.6, 1.378, 3.031, 0.782, 0.012, 0.787, 0.139, 1.086, 0.415, 0.007, 0.078, 1.515, 0.000, 1.409, 3.653, 0.620, 0.009, 0.627, 0.153, 0.883, 0.519, 0.213, 0.069, 1.826, 0.000, 2.434, 2.767, 0.040, 0.001, 0.051, 0.979, 0.125, 2.747, 0.090, 0.093, 1.383, 0.000, 0.000, 0.000, 0.000, 3, 0, 3, 4, 2, 2, 2, 3, 0, 11, 33, 29, 13, 12, 8356, 2, 0, 2, 2, 3, 0, 1, 0, 0, 4, 13, 18, 10, 3, 5582, 11, 0, 11, 10, 3, 2, 3, 1, 0, 127, 233, 121, 20, 14, 1349,
 15:09:19.242,e36fca7b-ac85-42ee-9e80-64b80ac1a132, 2000-00-00 00:01:40.825, 39.09, 0.7822, 0.6196, 0.0400, 0.2993, 0.2622, 0.1255, 0.16, 0.13, 0.06, 0, 0, 0, 2156.4, 2156.4, 697.6, 1.334, 3.397, 0.782, 0.014, 0.783, 0.151, 1.045, 0.490, 0.373, 0.084, 1.698, 0.000, 1.376, 3.376, 0.620, 0.008, 0.624, 0.144, 0.859, 0.474, 0.202, 0.064, 1.688, 0.000, 3.076, 3.081, 0.040, 0.002, 0.059, 1.129, 0.187, 3.641, -0.403, 0.118, 1.540, 0.000, 0.000, 0.000, 0.000, 3, 0, 3, 4, 3, 1, 2, 4, 0, 11, 33, 34, 15, 7, 9406, 1, 0, 1, 3, 3, 0, 0, 1, 0, 3, 15, 27, 16, 0, 6241, 7, 0, 7, 13, 9, 1, 1, 2, 0, 50, 233, 273, 93, 4, 1408,
 15:09:19.487,e36fca7b-ac85-42ee-9e80-64b80ac1a132, 2000-00-00 00:01:41.065, 39.10, 0.7822, 0.6196, 0.0405, 0.2900, 0.2563, 0.1313, 0.19, 0.16, 0.07, 0, 0, 0, 2140.5, 2140.5, 697.6, 1.384, 2.588, 0.782, 0.016, 0.787, 0.161, 1.090, 0.418, 0.054, 0.091, 1.294, 0.000, 1.400, 2.534, 0.620, 0.011, 0.628, 0.170, 0.879, 0.450, -0.013, 0.076, 1.267, 0.000, 3.110, 4.234, 0.040, 0.001, 0.052, 1.083, 0.163, 3.558, -0.290, 0.099, 2.117, 0.000, 0.000, 0.000, 0.000, 5, 0, 5, 3, 3, 0, 2, 5, 0, 26, 35, 20, 11, 9, 6722, 2, 0, 2, 2, 2, 0, 0, 1, 0, 7, 13, 14, 9, 0, 4784, 11, 0, 11, 10, 2, 2, 1, 1, 0, 123, 227, 111, 13, 9, 1195,
 15:09:19.729,e36fca7b-ac85-42ee-9e80-64b80ac1a132, 2000-00-00 00:01:41.300, 39.10, 0.7822, 0.6201, 0.0400, 0.2739, 0.2676, 0.1211, 0.13, 0.11, 0.05, 0, 0, 0, 2156.4, 2156.4, 697.6, 1.339, 2.693, 0.782, 0.011, 0.782, 0.135, 1.048, 0.369, -0.028, 0.076, 1.346, 0.000, 1.412, 3.151, 0.620, 0.009, 0.625, 0.156, 0.883, 0.479, 0.185, 0.070, 1.575, 0.000, 2.756, 3.797, 0.040, 0.001, 0.045, 1.081, 0.123, 3.825, 0.230, 3.770, 1.898, 0.037, 0.000, 0.000, 0.000, 2, 0, 2, 5, 5, 1, 5, 2, 0, 6, 38, 58, 29, 28, 6339, 1, 0, 1, 3, 1, 1, 0, 1, 0, 3, 12, 11, 4, 2, 4523, 7, 0, 7, 13, 3, 3, 2, 0, 0, 60, 229, 184, 27, 20, 1291,
 15:09:19.972,e36fca7b-ac85-42ee-9e80-64b80ac1a132, 2000-00-00 00:01:41.535, 39.09, 0.7817, 0.6196, 0.0400, 0.3018, 0.2827, 0.1284, 0.12, 0.10, 0.04, 0, 0, 0, 2124.7, 2140.5, 697.6, 1.390, 2.651, 0.782, 0.013, 0.793, 0.147, 1.102, 0.412, -0.094, 0.085, 1.325, 0.000, 1.325, 2.849, 0.620, 0.008, 0.627, 0.150, 0.831, 0.438, 0.227, 0.067, 1.424, 0.000, 3.012, 3.572, 0.040, 0.002, 0.053, 1.101, 0.159, 3.268, -0.408, 0.101, 1.786, 0.000, 0.000, 0.000, 0.000, 2, 0, 2, 5, 5, 1, 3, 4, 0, 8, 38, 62, 35, 16, 8107, 3, 0, 3, 2, 2, 0, 1, 1, 0, 9, 13, 9, 5, 2, 6026, 11, 0, 11, 10, 3, 1, 2, 0, 0, 121, 234, 126, 16, 11, 950,
 15:09:20.214,e36fca7b-ac85-42ee-9e80-64b80ac1a132, 2000-00-00 00:01:41.770, 39.09, 0.7817, 0.6196, 0.0400, 0.2998, 0.2744, 0.1289, 0.12, 0.10, 0.04, 0, 0, 0, 2172.3, 2172.3, 15.8, 1.374, 2.489, 0.782, 0.017, 0.788, 0.167, 1.083, 0.424, 0.007, 0.093, 1.244, 0.000, 1.429, 2.747, 0.619, 0.011, 0.625, 0.175, 0.894, 0.468, -0.004, 0.077, 1.373, 0.000, 3.222, 3.198, 0.040, 0.002, 0.055, 1.008, 0.178, 3.454, -0.209, 4.514, 1.599, 0.045, 0.000, 0.000, 0.000, 3, 0, 3, 4, 4, 0, 1, 6, 0, 14, 34, 37, 17, 2, 7556, 1, 0, 1, 3, 3, 0, 1, 1, 0, 2, 12, 21, 12, 2, 5908, 8, 0, 8, 13, 9, 2, 0, 1, 0, 66, 238, 253, 89, 8, 1222,
 15:09:20.459,e36fca7b-ac85-42ee-9e80-64b80ac1a132, 2000-00-00 00:01:42.005, 39.10, 0.7817, 0.6196, 0.0400, 0.3477, 0.3018, 0.1646, 0.12, 0.10, 0.04, 0, 0, 0, 2156.4, 2156.4, 697.6, 1.465, 3.116, 0.782, 0.014, 0.790, 0.154, 1.157, 0.518, 0.097, 0.088, 1.558, 0.000, 1.507, 3.214, 0.619, 0.010, 0.627, 0.165, 0.945, 0.574, 0.069, 0.074, 1.607, 0.000, 4.271, 3.696, 0.040, 0.002, 0.051, 1.189, 0.218, 5.155, -0.090, 4.772, 1.848, 0.047, 0.000, 0.000, 0.000, 4, 0, 4, 3, 3, 1, 2, 5, 0, 22, 35, 22, 12, 8, 9064, 2, 0, 2, 2, 3, 0, 0, 0, 0, 5, 11, 17, 11, 0, 6130, 10, 0, 10, 10, 3, 2, 1, 2, 0, 117, 236, 132, 20, 9, 1282,
 15:09:20.703,e36fca7b-ac85-42ee-9e80-64b80ac1a132, 2000-00-00 00:01:42.240, 39.09, 0.7817, 0.6196, 0.0396, 0.3032, 0.2710, 0.1382, 0.16, 0.14, 0.06, 0, 0, 0, 2156.4, 2156.4, 697.6, 1.293, 2.609, 0.781, 0.008, 0.782, 0.119, 1.012, 0.309, -0.106, 0.206, 1.304, 0.000, 1.403, 3.327, 0.620, 0.006, 0.623, 0.133, 0.875, 0.433, -0.093, 0.059, 1.663, 0.000, 3.062, 4.296, 0.039, 0.001, 0.047, 1.078, 0.140, 4.156, 0.532, 0.088, 2.148, 0.000, 0.000, 0.000, 0.000, 3, 0, 3, 5, 3, 1, 3, 4, 0, 9, 36, 38, 15, 15, 5130, 2, 0, 2, 2, 2, 0, 0, 1, 0, 4, 11, 13, 6, 0, 4998, 10, 0, 10, 11, 5, 2, 1, 2, 0, 108, 233, 150, 30, 7, 1255,
 15:09:20.947,e36fca7b-ac85-42ee-9e80-64b80ac1a132, 2000-00-00 00:01:42.475, 39.10, 0.7817, 0.6196, 0.0396, 0.2964, 0.2632, 0.1455, 0.12, 0.10, 0.04, 0, 0, 0, 2124.7, 2124.7, 15.8, 1.412, 2.906, 0.782, 0.012, 0.791, 0.139, 1.118, 0.441, 0.042, 0.080, 1.453, 0.000, 1.426, 3.104, 0.620, 0.009, 0.628, 0.152, 0.896, 0.533, 0.006, 0.069, 1.552, 0.000, 3.589, 3.517, 0.039, 0.001, 0.045, 1.196, 0.163, 4.696, 0.127, 4.280, 1.758, 0.042, 0.000, 0.000, 0.000, 2, 0, 2, 5, 2, 1, 4, 4, 0, 8, 35, 30, 7, 21, 5295, 2, 0, 2, 3, 3, 0, 1, 0, 0, 5, 14, 22, 13, 1, 4286, 7, 0, 7, 12, 7, 2, 4, 0, 0, 59, 228, 219, 56, 25, 922,
 15:09:21.190,e36fca7b-ac85-42ee-9e80-64b80ac1a132, 2000-00-00 00:01:42.710, 39.10, 0.7817, 0.6196, 0.0391, 0.3462, 0.3008, 0.1528, 0.11, 0.09, 0.04, 0, 0, 0, 2156.4, 2156.4, 15.8, 1.496, 3.132, 0.782, 0.010, 0.789, 0.133, 1.181, 0.513, 0.015, 0.075, 1.566, 0.000, 1.441, 3.372, 0.620, 0.008, 0.627, 0.147, 0.904, 0.603, 0.080, 0.065, 1.686, 0.000, 3.556, 3.234, 0.039, 0.001, 0.045, 1.205, 0.161, 4.658, 0.031, 4.284, 1.617, 0.043, 0.000, 0.000, 0.000, 5, 0, 5, 2, 2, 1, 4, 3, 0, 30, 36, 14, 10, 19, 7704, 2, 0, 2, 2, 3, 0, 1, 0, 0, 5, 12, 15, 9, 1, 5101, 11, 0, 11, 10, 6, 2, 1, 1, 0, 122, 230, 144, 41, 7, 954,
 15:09:21.433,e36fca7b-ac85-42ee-9e80-64b80ac1a132, 2000-00-00 00:01:42.945, 39.11, 0.7817, 0.6196, 0.0391, 0.3799, 0.3462, 0.1616, 0.10, 0.09, 0.04, 0, 0, 0, 2172.3, 2172.3, 15.8, 1.530, 3.186, 0.782, 0.011, 0.790, 0.137, 1.209, 0.544, 0.014, 0.077, 1.593, 0.000, 1.504, 3.451, 0.620, 0.008, 0.627, 0.149, 0.944, 0.628, 0.114, 0.066, 1.725, 0.000, 4.027, 3.520, 0.039, 0.001, 0.045, 1.220, 0.184, 4.849, 0.061, 4.354, 1.760, 0.043, 0.000, 0.000, 0.000, 3, 0, 3, 5, 4, 1, 2, 5, 0, 9, 35, 49, 24, 6, 6225, 2, 0, 2, 2, 1, 1, 0, 0, 0, 4, 13, 12, 5, 1, 4236, 7, 0, 7, 12, 2, 3, 2, 4, 0, 60, 216, 163, 17, 16, 916,
 15:09:21.676,e36fca7b-ac85-42ee-9e80-64b80ac1a132, 2000-00-00 00:01:43.175, 39.10, 0.7817, 0.6196, 0.0391, 0.3804, 0.3623, 0.1646, 0.16, 0.14, 0.07, 0, 0, 0, 2156.4, 2156.4, 15.8, 1.477, 3.350, 0.782, 0.010, 0.789, 0.130, 1.166, 0.509, 0.052, 0.227, 1.675, 0.000, 1.580, 3.773, 0.620, 0.008, 0.626, 0.144, 0.990, 0.625, 0.110, 0.065, 1.886, 0.000, 3.971, 3.428, 0.039, 0.001, 0.045, 1.217, 0.182, 4.700, 0.114, 4.353, 1.714, 0.043, 0.000, 0.000, 0.000, 3, 0, 3, 4, 3, 1, 0, 3, 0, 15, 35, 34, 16, 2, 6289, 2, 0, 2, 1, 2, 0, 1, 1, 0, 8, 12, 8, 5, 1, 5242, 11, 0, 11, 10, 4, 1, 1, 2, 0, 127, 237, 133, 26, 3, 1058,
 15:09:21.922,e36fca7b-ac85-42ee-9e80-64b80ac1a132, 2000-00-00 00:01:43.410, 39.10, 0.7817, 0.6196, 0.0391, 0.3857, 0.3457, 0.1699, 0.12, 0.10, 0.05, 0, 0, 0, 2124.7, 2124.7, 15.8, 1.423, 3.127, 0.782, 0.009, 0.789, 0.126, 1.123, 0.465, 0.054, 0.072, 1.563, 0.000, 1.457, 3.310, 0.620, 0.007, 0.626, 0.139, 0.913, 0.510, 0.081, 0.063, 1.655, 0.000, 4.042, 3.672, 0.039, 0.001, 0.044, 1.239, 0.181, 5.304, 0.070, 4.303, 1.836, 0.043, 0.000, 0.000, 0.000, 3, 0, 3, 5, 3, 1, 3, 1, 0, 10, 36, 40, 18, 14, 4895, 1, 0, 1, 3, 3, 0, 0, 0, 0, 3, 12, 21, 12, 0, 3892, 7, 0, 7, 13, 7, 3, 4, 0, 0, 51, 228, 226, 62, 31, 1077,
 15:09:22.165,e36fca7b-ac85-42ee-9e80-64b80ac1a132, 2000-00-00 00:01:43.650, 39.11, 0.7817, 0.6196, 0.0391, 0.3579, 0.3193, 0.1680, 0.10, 0.09, 0.04, 0, 0, 0, 2124.7, 2156.4, 15.8, 1.485, 3.105, 0.782, 0.010, 0.789, 0.132, 1.172, 0.505, -0.009, 0.074, 1.552, 0.000, 1.456, 3.242, 0.620, 0.008, 0.626, 0.144, 0.913, 0.541, 0.090, 0.064, 1.621, 0.000, 3.908, 3.549, 0.039, 0.001, 0.044, 1.224, 0.173, 5.188, 0.081, 4.239, 1.774, 0.042, 0.000, 0.000, 0.000, 4, 0, 4, 3, 2, 0, 1, 4, 0, 19, 33, 20, 6, 4, 5847, 2, 0, 2, 2, 1, 0, 1, 0, 0, 7, 11, 8, 4, 2, 4226, 10, 0, 10, 10, 3, 2, 4, 1, 0, 109, 225, 131, 20, 23, 967,
 15:09:22.407,e36fca7b-ac85-42ee-9e80-64b80ac1a132, 2000-00-00 00:01:43.885, 39.11, 0.7817, 0.6196, 0.0391, 0.3525, 0.3101, 0.1592, 0.10, 0.09, 0.04, 0, 0, 0, 2140.5, 2140.5, 15.8, 1.455, 2.968, 0.782, 0.011, 0.789, 0.139, 1.149, 0.471, -0.006, 0.079, 1.484, 0.000, 1.452, 3.114, 0.620, 0.008, 0.627, 0.151, 0.910, 0.644, 0.120, 0.068, 1.557, 0.000, 3.820, 3.351, 0.039, 0.002, 0.046, 1.220, 0.176, 4.783, 0.169, 4.418, 1.675, 0.044, 0.000, 0.000, 0.000, 3, 0, 3, 4, 3, 1, 1, 3, 0, 13, 34, 34, 14, 3, 7193, 1, 0, 1, 3, 3, 0, 1, 0, 0, 2, 12, 21, 12, 2, 5179, 9, 0, 9, 12, 8, 2, 2, 2, 0, 82, 243, 239, 84, 10, 1199,
 15:09:22.652,e36fca7b-ac85-42ee-9e80-64b80ac1a132, 2000-00-00 00:01:44.115, 39.11, 0.7817, 0.6196, 0.0391, 0.3550, 0.3379, 0.1660, 0.11, 0.09, 0.04, 0, 0, 0, 2172.3, 2172.3, 15.8, 1.454, 3.050, 0.782, 0.011, 0.789, 0.138, 1.148, 0.468, -0.037, 0.078, 1.525, 0.000, 1.519, 3.293, 0.620, 0.008, 0.627, 0.149, 0.952, 0.580, 0.109, 0.067, 1.646, 0.000, 3.957, 3.424, 0.039, 0.002, 0.046, 1.231, 0.184, 4.824, 0.087, 4.459, 1.712, 0.044, 0.000, 0.000, 0.000, 4, 0, 4, 4, 2, 1, 1, 1, 0, 18, 34, 22, 8, 6, 6354, 1, 0, 1, 2, 3, 0, 0, 0, 0, 3, 12, 20, 11, 0, 4708, 10, 0, 10, 10, 3, 3, 2, 2, 0, 109, 226, 129, 22, 20, 970,
 15:09:22.897,e36fca7b-ac85-42ee-9e80-64b80ac1a132, 2000-00-00 00:01:44.350, 39.12, 0.7822, 0.6196, 0.0391, 0.3677, 0.3345, 0.1738, 0.11, 0.09, 0.04, 0, 0, 0, 2140.5, 2140.5, 15.8, 1.459, 3.310, 0.782, 0.010, 0.788, 0.133, 1.151, 0.495, 0.046, 0.076, 1.655, 0.000, 1.459, 3.356, 0.620, 0.008, 0.626, 0.146, 0.914, 0.562, 0.070, 0.066, 1.678, 0.000, 3.880, 3.472, 0.039, 0.002, 0.047, 1.208, 0.184, 5.128, 0.193, 4.513, 1.736, 0.045, 0.000, 0.000, 0.000, 3, 0, 3, 5, 2, 1, 0, 1, 0, 10, 35, 33, 11, 3, 4719, 2, 0, 2, 2, 2, 0, 0, 0, 0, 7, 13, 14, 8, 1, 3923, 9, 0, 9, 11, 3, 3, 0, 3, 0, 85, 227, 154, 24, 12, 1101,
 15:09:23.142,e36fca7b-ac85-42ee-9e80-64b80ac1a132, 2000-00-00 00:01:44.590, 39.11, 0.7822, 0.6196, 0.0386, 0.3760, 0.3306, 0.1733, 0.11, 0.09, 0.04, 0, 0, 0, 2156.4, 2156.4, 15.8, 1.461, 3.133, 0.782, 0.011, 0.789, 0.135, 1.153, 0.486, -0.066, 0.075, 1.566, 0.000, 1.451, 3.262, 0.620, 0.008, 0.626, 0.146, 0.909, 0.546, 0.080, 0.066, 1.631, 0.000, 3.831, 3.587, 0.039, 0.002, 0.046, 1.232, 0.177, 5.023, 0.090, 4.424, 1.793, 0.044, 0.000, 0.000, 0.000, 3, 0, 3, 5, 5, 0, 2, 2, 0, 9, 35, 53, 28, 6, 5162, 2, 0, 2, 2, 1, 0, 1, 0, 0, 6, 12, 9, 3, 3, 4148, 9, 0, 9, 11, 1, 2, 5, 3, 0, 83, 222, 141, 9, 32, 967,
 15:09:23.387,e36fca7b-ac85-42ee-9e80-64b80ac1a132, 2000-00-00 00:01:44.825, 39.10, 0.7822, 0.6196, 0.0386, 0.3818, 0.3359, 0.1685, 0.13, 0.11, 0.05, 0, 0, 0, 2219.8, 2172.3, 15.8, 1.489, 3.248, 0.782, 0.011, 0.789, 0.137, 1.176, 0.507, -0.062, 0.078, 1.624, 0.000, 1.470, 3.487, 0.620, 0.008, 0.627, 0.149, 0.922, 0.615, 0.145, 0.066, 1.743, 0.000, 3.700, 3.386, 0.038, 0.002, 0.047, 1.230, 0.174, 4.829, 0.062, 4.531, 1.693, 0.045, 0.000, 0.000, 0.000, 3, 0, 3, 4, 4, 0, 0, 0, 0, 14, 34, 38, 19, 1, 6726, 1, 0, 1, 3, 2, 0, 1, 0, 0, 3, 12, 16, 7, 3, 4576, 10, 0, 10, 11, 7, 2, 3, 3, 0, 102, 234, 181, 54, 15, 1154,
 15:09:23.632,e36fca7b-ac85-42ee-9e80-64b80ac1a132, 2000-00-00 00:01:45.065, 39.10, 0.7822, 0.6196, 0.0386, 0.3789, 0.3394, 0.1636, 0.14, 0.12, 0.06, 0, 0, 0, 2156.4, 2172.3, 15.8, 1.466, 3.196, 0.782, 0.011, 0.789, 0.136, 1.158, 0.485, -0.023, 0.076, 1.598, 0.000, 1.485, 3.222, 0.620, 0.008, 0.626, 0.144, 0.930, 0.557, 0.094, 0.064, 1.611, 0.000, 3.586, 3.462, 0.038, 0.002, 0.048, 1.212, 0.174, 4.623, 0.169, 4.608, 1.731, 0.046, 0.000, 0.000, 0.000, 2, 0, 2, 4, 1, 0, 1, 1, 0, 8, 30, 23, 2, 4, 6309, 1, 0, 1, 3, 4, 1, 0, 1, 0, 2, 14, 28, 17, 1, 4219, 8, 0, 8, 12, 7, 2, 4, 4, 0, 66, 230, 216, 56, 21, 1260,
 15:09:23.877,e36fca7b-ac85-42ee-9e80-64b80ac1a132, 2000-00-00 00:01:45.300, 39.10, 0.7822, 0.6196, 0.0386, 0.3916, 0.3359, 0.1670, 0.20, 0.16, 0.08, 0, 0, 0, 2172.3, 2124.7, 697.6, 1.462, 3.068, 0.782, 0.012, 0.790, 0.144, 1.155, 0.538, 0.044, 0.081, 1.534, 0.000, 1.496, 3.258, 0.620, 0.008, 0.626, 0.150, 0.938, 0.582, 0.043, 0.068, 1.629, 0.000, 4.256, 3.403, 0.038, 0.002, 0.048, 1.219, 0.204, 5.160, 0.024, 4.580, 1.701, 0.045, 0.000, 0.000, 0.000, 4, 0, 4, 3, 2, 1, 1, 4, 0, 19, 34, 20, 6, 4, 6554, 3, 0, 3, 1, 2, 0, 0, 1, 0, 9, 12, 9, 6, 0, 4381, 10, 0, 10, 11, 4, 2, 1, 2, 0, 107, 229, 147, 29, 6, 1274,
 15:09:24.121,e36fca7b-ac85-42ee-9e80-64b80ac1a132, 2000-00-00 00:01:45.535, 39.08, 0.7822, 0.6201, 0.0386, 0.3550, 0.3276, 0.1455, 0.14, 0.11, 0.05, 0, 0, 0, 2124.7, 2140.5, 15.8, 1.412, 3.263, 0.782, 0.012, 0.789, 0.140, 1.114, 0.496, 0.079, 0.080, 1.631, 0.000, 1.459, 3.352, 0.620, 0.008, 0.629, 0.148, 0.918, 0.490, 0.013, 0.067, 1.676, 0.000, 3.551, 3.406, 0.038, 0.002, 0.047, 1.193, 0.169, 4.479, 0.155, 4.436, 1.703, 0.044, 0.000, 0.000, 0.000, 2, 0, 2, 4, 2, 1, 3, 3, 0, 8, 32, 29, 7, 17, 4945, 1, 0, 1, 3, 3, 1, 0, 1, 0, 2, 13, 23, 14, 1, 3407, 7, 0, 7, 13, 6, 3, 3, 2, 0, 54, 226, 218, 61, 25, 1174,
 15:09:24.365,e36fca7b-ac85-42ee-9e80-64b80ac1a132, 2000-00-00 00:01:45.770, 39.09, 0.7822, 0.6201, 0.0386, 0.3584, 0.3066, 0.1484, 0.14, 0.12, 0.05, 0, 0, 0, 2219.8, 2140.5, 697.6, 1.322, 2.568, 0.782, 0.010, 0.787, 0.128, 1.042, 0.336, -0.077, 0.070, 1.284, 0.000, 1.332, 2.874, 0.620, 0.007, 0.624, 0.135, 0.832, 0.368, -0.017, 0.061, 1.437, 0.000, 2.582, 3.470, 0.039, 0.001, 0.051, 0.993, 0.130, 3.446, 0.384, 0.090, 1.735, 0.000, 0.000, 0.000, 0.000, 4, 0, 4, 4, 2, 1, 2, 2, 0, 18, 35, 23, 10, 8, 5669, 2, 0, 2, 3, 3, 0, 1, 1, 0, 5, 14, 21, 12, 3, 4146, 11, 0, 11, 10, 5, 1, 1, 3, 0, 121, 234, 146, 36, 5, 1370,
 15:09:24.608,e36fca7b-ac85-42ee-9e80-64b80ac1a132, 2000-00-00 00:01:46.005, 39.09, 0.7822, 0.6201, 0.0386, 0.3076, 0.2666, 0.1211, 0.16, 0.14, 0.06, 0, 0, 0, 697.6, 2172.3, 697.6, 1.321, 2.929, 0.782, 0.009, 0.790, 0.123, 1.045, 0.338, 0.077, 0.217, 1.464, 0.000, 1.354, 3.303, 0.620, 0.007, 0.625, 0.142, 0.847, 0.456, 0.169, 0.063, 1.651, 0.000, 2.672, 3.333, 0.038, 0.001, 0.047, 0.964, 0.125, 3.025, 0.033, 0.082, 1.666, 0.000, 0.000, 0.000, 0.000, 2, 0, 2, 5, 4, 0, 1, 4, 0, 7, 33, 41, 16, 1, 7858, 1, 0, 1, 3, 2, 1, 0, 1, 0, 4, 13, 15, 7, 1, 4499, 7, 0, 7, 12, 0, 3, 2, 3, 0, 59, 212, 154, 16, 20, 1073,
 15:09:24.852,e36fca7b-ac85-42ee-9e80-64b80ac1a132, 2000-00-00 00:01:46.240, 39.08, 0.7822, 0.6201, 0.0386, 0.2788, 0.2451, 0.1133, 0.25, 0.21, 0.10, 0, 0, 0, 697.6, 2172.3, 697.6, 1.318, 2.603, 0.782, 0.012, 0.785, 0.144, 1.036, 0.360, 0.007, 0.250, 1.301, 0.000, 1.401, 3.056, 0.620, 0.007, 0.624, 0.142, 0.875, 0.439, -0.094, 0.063, 1.528, 0.000, 3.010, 2.960, 0.039, 0.002, 0.053, 1.093, 0.161, 3.430, -0.225, 0.101, 1.480, 0.000, 0.000, 0.000, 0.000, 3, 0, 3, 4, 4, 1, 1, 4, 0, 14, 33, 37, 19, 3, 5914, 3, 0, 3, 1, 2, 0, 0, 2, 0, 10, 13, 11, 8, 0, 4573, 10, 0, 10, 10, 5, 1, 3, 1, 0, 112, 231, 146, 29, 11, 1179,
 15:09:25.096,e36fca7b-ac85-42ee-9e80-64b80ac1a132, 2000-00-00 00:01:46.475, 39.09, 0.7822, 0.6201, 0.0391, 0.2979, 0.2646, 0.1226, 0.23, 0.19, 0.08, 0, 0, 0, 697.6, 2219.8, 697.6, 1.361, 2.768, 0.782, 0.017, 0.789, 0.168, 1.075, 0.468, 0.186, 0.292, 1.384, 0.000, 1.458, 3.110, 0.620, 0.011, 0.629, 0.173, 0.918, 0.508, -0.063, 0.075, 1.555, 0.000, 3.058, 3.329, 0.039, 0.002, 0.055, 1.030, 0.168, 3.305, -0.128, 0.101, 1.664, 0.000, 0.000, 0.000, 0.000, 2, 0, 2, 4, 3, 1, 3, 3, 0, 8, 32, 36, 15, 19, 6848, 1, 0, 1, 3, 3, 1, 0, 1, 0, 2, 12, 21, 12, 1, 4490, 8, 0, 8, 12, 5, 4, 1, 0, 0, 65, 221, 187, 49, 19, 1581,
 15:09:25.338,e36fca7b-ac85-42ee-9e80-64b80ac1a132, 2000-00-00 00:01:46.715, 39.09, 0.7822, 0.6201, 0.0391, 0.2988, 0.2510, 0.1279, 0.20, 0.17, 0.08, 0, 0, 0, 2156.4, 2093.0, 697.6, 1.274, 2.829, 0.782, 0.008, 0.782, 0.118, 0.996, 0.305, -0.064, 0.066, 1.414, 0.000, 1.333, 3.077, 0.620, 0.007, 0.623, 0.138, 0.831, 0.407, 0.000, 0.062, 1.538, 0.000, 3.320, 3.528, 0.039, 0.001, 0.051, 1.072, 0.169, 3.589, -0.058, 0.096, 1.764, 0.000, 0.000, 0.000, 0.000, 3, 0, 3, 4, 1, 1, 3, 6, 0, 13, 33, 22, 5, 14, 6439, 2, 0, 2, 3, 3, 0, 0, 1, 0, 4, 14, 22, 13, 0, 4542, 9, 0, 9, 11, 2, 2, 3, 3, 0, 83, 218, 138, 10, 20, 1431,
 15:09:25.581,e36fca7b-ac85-42ee-9e80-64b80ac1a132, 2000-00-00 00:01:46.945, 39.10, 0.7822, 0.6201, 0.0396, 0.2813, 0.2456, 0.1250, 0.21, 0.17, 0.08, 0, 0, 0, 697.6, 2172.3, 697.6, 1.413, 2.797, 0.782, 0.016, 0.789, 0.162, 1.116, 0.439, -0.063, 0.282, 1.398, 0.000, 1.418, 2.991, 0.620, 0.008, 0.623, 0.153, 0.884, 0.451, -0.064, 0.067, 1.495, 0.000, 3.023, 3.272, 0.039, 0.003, 0.064, 1.144, 0.193, 3.480, -0.089, 0.127, 1.636, 0.000, 0.000, 0.000, 0.000, 3, 0, 3, 4, 3, 0, 2, 5, 0, 9, 31, 36, 15, 6, 6670, 2, 0, 2, 2, 2, 0, 1, 1, 0, 7, 13, 11, 7, 4, 5196, 9, 0, 9, 11, 7, 1, 2, 1, 0, 93, 226, 190, 61, 8, 1111,
 15:09:25.824,e36fca7b-ac85-42ee-9e80-64b80ac1a132, 2000-00-00 00:01:47.180, 39.11, 0.7822, 0.6201, 0.0396, 0.3198, 0.2646, 0.1191, 0.13, 0.10, 0.04, 0, 0, 0, 2156.4, 2156.4, 15.8, 1.367, 2.747, 0.782, 0.016, 0.794, 0.163, 1.086, 0.435, 0.171, 0.092, 1.373, 0.000, 1.455, 3.080, 0.620, 0.010, 0.626, 0.163, 0.912, 0.495, -0.261, 0.073, 1.540, 0.000, 2.862, 3.023, 0.039, 0.002, 0.056, 1.111, 0.160, 3.217, -0.414, 4.714, 1.511, 0.047, 0.000, 0.000, 0.000, 4, 0, 4, 4, 2, 3, 3, 3, 0, 20, 39, 25, 15, 23, 6585, 2, 0, 2, 3, 3, 0, 1, 1, 0, 4, 13, 22, 13, 1, 4331, 8, 0, 8, 13, 6, 2, 4, 1, 0, 66, 236, 219, 53, 24, 1255,
 15:09:26.067,e36fca7b-ac85-42ee-9e80-64b80ac1a132, 2000-00-00 00:01:47.415, 39.10, 0.7817, 0.6201, 0.0396, 0.3013, 0.2681, 0.1182, 0.17, 0.14, 0.06, 0, 0, 0, 2140.5, 2140.5, 697.6, 1.281, 2.942, 0.782, 0.008, 0.781, 0.115, 1.001, 0.349, 0.064, 0.065, 1.471, 0.000, 1.338, 3.360, 0.620, 0.006, 0.622, 0.131, 0.832, 0.411, 0.178, 0.058, 1.680, 0.000, 2.729, 3.006, 0.039, 0.001, 0.048, 1.062, 0.129, 3.217, 0.080, 0.090, 1.503, 0.000, 0.000, 0.000, 0.000, 4, 0, 4, 4, 2, 2, 1, 6, 0, 17, 34, 20, 8, 7, 9986, 2, 0, 2, 2, 2, 0, 1, 1, 0, 5, 12, 14, 8, 1, 6244, 10, 0, 10, 11, 3, 2, 1, 1, 0, 106, 231, 134, 16, 8, 1259,
